#SUBSTANCE=Anatase (TiO<sub>2</sub>)
#DESCRIPTION=Imaginary refractive index of anatase (TiO<sub>2</sub>)
#REFERENCE=Zeidler, S., Posch, T., Mutschke, H., Richter, H. and Wehrhan, O., 2011. Near-infrared absorption properties of oxygen-rich stardust analogs-The influence of coloring metal ions. Astronomy & Astrophysics, 526, p.A68.
#DOI=10.1051/0004-6361/201015219
#FORMAT=WAVL K
0.571	0.00124
0.572	0.0013
0.573	0.00125
0.574	0.00127
0.575	0.00125
0.576	0.00125
0.577	0.00124
0.578	0.00126
0.579	0.00122
0.58	0.00126
0.581	0.00123
0.582	0.00124
0.583	0.00123
0.584	0.00124
0.585	0.00124
0.586	0.00123
0.587	0.00122
0.588	0.00122
0.589	0.00121
0.59	0.00122
0.591	0.0012
0.592	0.00121
0.593	0.0012
0.594	0.0012
0.595	0.0012
0.596	0.00119
0.597	0.0012
0.598	0.00119
0.599	0.00118
0.60	0.00118
0.601	0.00117
0.602	0.00117
0.603	0.00117
0.604	0.00117
0.605	0.00117
0.606	0.00116
0.607	0.00116
0.608	0.00115
0.609	0.00116
0.61	0.00115
0.611	0.00115
0.612	0.00114
0.613	0.00114
0.614	0.00113
0.615	0.00113
0.616	0.00113
0.617	0.00113
0.618	0.00112
0.619	0.00113
0.62	0.0011
0.621	0.00112
0.622	0.00111
0.623	0.00111
0.624	0.0011
0.625	0.0011
0.626	0.00109
0.627	0.0011
0.628	0.00109
0.629	0.00109
0.63	0.00108
0.631	0.00109
0.632	0.00107
0.633	0.00108
0.634	0.00106
0.635	0.00107
0.636	0.00106
0.637	0.00106
0.638	0.00106
0.639	0.00106
0.64	0.00105
0.641	0.00105
0.642	0.00104
0.643	0.00105
0.644	0.00103
0.645	0.00104
0.646	0.00103
0.647	0.00103
0.648	0.00102
0.649	0.00103
0.65	0.00102
0.651	0.00102
0.652	0.00101
0.653	0.00102
0.654	0.001
0.655	0.00101
0.656	9.98563E-4
0.657	0.001
0.658	9.91688E-4
0.659	9.95219E-4
0.66	9.88868E-4
0.661	9.90185E-4
0.662	9.84993E-4
0.663	9.89613E-4
0.664	9.74697E-4
0.665	9.8002E-4
0.666	9.70095E-4
0.667	9.78581E-4
0.668	9.66774E-4
0.669	9.72076E-4
0.67	9.60766E-4
0.671	9.63184E-4
0.672	9.54966E-4
0.673	9.5812E-4
0.674	9.51048E-4
0.675	9.53799E-4
0.676	9.4643E-4
0.677	9.51297E-4
0.678	9.40347E-4
0.679	9.4405E-4
0.68	9.36384E-4
0.681	9.39682E-4
0.682	9.30895E-4
0.683	9.34395E-4
0.684	9.28031E-4
0.685	9.29507E-4
0.686	9.26794E-4
0.687	9.25531E-4
0.688	9.18223E-4
0.689	9.26046E-4
0.69	9.18306E-4
0.691	9.17405E-4
0.692	9.12301E-4
0.693	9.14168E-4
0.694	9.06377E-4
0.695	9.07624E-4
0.696	9.04971E-4
0.697	9.0594E-4
0.698	8.99438E-4
0.699	9.00587E-4
0.70	8.97288E-4
0.701	8.96539E-4
0.702	8.91299E-4
0.703	8.98241E-4
0.704	8.90583E-4
0.705	8.94236E-4
0.706	8.86623E-4
0.707	8.90075E-4
0.708	8.81456E-4
0.709	8.84555E-4
0.71	8.78962E-4
0.711	8.79357E-4
0.712	8.77544E-4
0.713	8.77603E-4
0.714	8.72781E-4
0.715	8.79247E-4
0.716	8.70524E-4
0.717	8.73195E-4
0.718	8.67517E-4
0.719	8.69926E-4
0.72	8.65805E-4
0.721	8.64812E-4
0.722	8.59815E-4
0.723	8.61862E-4
0.724	8.59048E-4
0.725	8.60131E-4
0.726	8.57762E-4
0.727	8.62033E-4
0.728	8.55149E-4
0.729	8.57194E-4
0.73	8.55665E-4
0.731	8.54896E-4
0.732	8.50429E-4
0.733	8.51474E-4
0.734	8.494E-4
0.735	8.4782E-4
0.736	8.46537E-4
0.737	8.48747E-4
0.738	8.42643E-4
0.739	8.4723E-4
0.74	8.41965E-4
0.741	8.44953E-4
0.742	8.39055E-4
0.743	8.41829E-4
0.744	8.37585E-4
0.745	8.38481E-4
0.746	8.35789E-4
0.747	8.36874E-4
0.748	8.30986E-4
0.749	8.33081E-4
0.75	8.28436E-4
0.751	8.31494E-4
0.752	8.28796E-4
0.753	8.29692E-4
0.754	8.2454E-4
0.755	8.25359E-4
0.756	8.23781E-4
0.757	8.24607E-4
0.758	8.20755E-4
0.759	8.23291E-4
0.76	8.20307E-4
0.761	8.22914E-4
0.762	8.17545E-4
0.763	8.20318E-4
0.764	8.16586E-4
0.765	8.1546E-4
0.766	8.13696E-4
0.767	8.16216E-4
0.768	8.11517E-4
0.769	8.12005E-4
0.77	8.09277E-4
0.771	8.08487E-4
0.772	8.08645E-4
0.773	8.1105E-4
0.774	8.05698E-4
0.775	8.06718E-4
0.776	8.07025E-4
0.777	8.04821E-4
0.778	8.04067E-4
0.779	8.0163E-4
0.78	8.02307E-4
0.781	8.00942E-4
0.782	7.94315E-4
0.783	8.00423E-4
0.784	7.94959E-4
0.785	7.98738E-4
0.786	7.95159E-4
0.787	7.97149E-4
0.788	7.92106E-4
0.789	7.91358E-4
0.79	7.8903E-4
0.791	7.89561E-4
0.792	7.90996E-4
0.793	7.88056E-4
0.794	7.87477E-4
0.795	7.88555E-4
0.796	7.84941E-4
0.797	7.83854E-4
0.798	7.86702E-4
0.799	7.89058E-4
0.80	7.83439E-4
0.801	7.78646E-4
0.802	7.77553E-4
0.803	7.77338E-4
0.804	7.75267E-4
0.805	7.77285E-4
0.806	7.71964E-4
0.807	7.73743E-4
0.808	7.72259E-4
0.809	7.72609E-4
0.81	7.74694E-4
0.811	7.69423E-4
0.812	7.65874E-4
0.813	7.66249E-4
0.814	7.63572E-4
0.815	7.64024E-4
0.816	7.6286E-4
0.817	7.60343E-4
0.818	7.61092E-4
0.819	7.59606E-4
0.82	7.5563E-4
0.821	7.57418E-4
0.822	7.54215E-4
0.823	7.54912E-4
0.824	7.5507E-4
0.825	7.5475E-4
0.826	7.51801E-4
0.827	7.55149E-4
0.828	7.50684E-4
0.829	7.5012E-4
0.83	7.48442E-4
0.831	7.44307E-4
0.832	7.45973E-4
0.833	7.48613E-4
0.834	7.45646E-4
0.835	7.40136E-4
0.836	7.42341E-4
0.837	7.41997E-4
0.838	7.40596E-4
0.839	7.3976E-4
0.84	7.38218E-4
0.841	7.3574E-4
0.842	7.39276E-4
0.843	7.33524E-4
0.844	7.28907E-4
0.845	7.32796E-4
0.846	7.33747E-4
0.847	7.29096E-4
0.848	7.26109E-4
0.849	7.29813E-4
0.85	7.30484E-4
0.851	7.28546E-4
0.852	7.27473E-4
0.853	7.27905E-4
0.854	7.22262E-4
0.855	7.25035E-4
0.856	7.17359E-4
0.857	7.18876E-4
0.858	7.14474E-4
0.859	7.19125E-4
0.86	7.13921E-4
0.861	6.72698E-4
0.862	6.85009E-4
0.863	6.917E-4
0.864	7.09788E-4
0.865	7.23815E-4
0.866	7.49467E-4
0.867	7.50082E-4
0.868	7.52711E-4
0.869	7.41795E-4
0.87	7.42644E-4
0.871	7.32793E-4
0.872	7.32069E-4
0.873	7.23768E-4
0.874	7.27158E-4
0.875	7.18345E-4
0.876	7.16924E-4
0.877	7.0815E-4
0.878	7.08635E-4
0.879	7.03568E-4
0.88	7.0585E-4
0.881	6.96017E-4
0.882	6.95896E-4
0.883	6.88872E-4
0.884	6.90102E-4
0.885	6.83164E-4
0.886	6.82901E-4
0.887	6.76338E-4
0.888	6.789E-4
0.889	6.70225E-4
0.89	6.71499E-4
0.891	6.66688E-4
0.892	6.68105E-4
0.893	6.5993E-4
0.894	6.59735E-4
0.895	6.53692E-4
0.896	6.54734E-4
0.897	6.49916E-4
0.898	6.51849E-4
0.899	6.46977E-4
0.90	6.4745E-4
0.901	6.4083E-4
0.902	6.44266E-4
0.903	6.38329E-4
0.904	6.38879E-4
0.905	6.35873E-4
0.906	6.35769E-4
0.907	6.31145E-4
0.908	6.32778E-4
0.909	6.27952E-4
0.91	6.28999E-4
0.911	6.25604E-4
0.912	6.26518E-4
0.913	6.22611E-4
0.914	6.23551E-4
0.915	6.20281E-4
0.916	6.21272E-4
0.917	6.17742E-4
0.918	6.18615E-4
0.919	6.14277E-4
0.92	6.14553E-4
0.921	6.1089E-4
0.922	6.10909E-4
0.923	6.08936E-4
0.924	6.08842E-4
0.925	6.06531E-4
0.926	6.05881E-4
0.927	6.03605E-4
0.928	6.0289E-4
0.929	6.00523E-4
0.93	5.99545E-4
0.931	5.9695E-4
0.932	5.96774E-4
0.933	5.94349E-4
0.934	5.93368E-4
0.935	5.91331E-4
0.936	5.90965E-4
0.937	5.87507E-4
0.938	5.88449E-4
0.939	5.85746E-4
0.94	5.84747E-4
0.941	5.82434E-4
0.942	5.82396E-4
0.943	5.79917E-4
0.944	5.80369E-4
0.945	5.75304E-4
0.946	5.75844E-4
0.947	5.73849E-4
0.948	5.74377E-4
0.949	5.71724E-4
0.95	5.7101E-4
0.951	5.69445E-4
0.952	5.69429E-4
0.953	5.66365E-4
0.954	5.65201E-4
0.955	5.62469E-4
0.956	5.62699E-4
0.957	5.59564E-4
0.958	5.60015E-4
0.959	5.57691E-4
0.96	5.57092E-4
0.961	5.54254E-4
0.962	5.5447E-4
0.963	5.52017E-4
0.964	5.52052E-4
0.965	5.49846E-4
0.966	5.49562E-4
0.967	5.46715E-4
0.968	5.46962E-4
0.969	5.44534E-4
0.97	5.44036E-4
0.971	5.41548E-4
0.972	5.41761E-4
0.973	5.39208E-4
0.974	5.39055E-4
0.975	5.36998E-4
0.976	5.36043E-4
0.977	5.34097E-4
0.978	5.3305E-4
0.979	5.31903E-4
0.98	5.30243E-4
0.981	5.27882E-4
0.982	5.28087E-4
0.983	5.26463E-4
0.984	5.25299E-4
0.985	5.23958E-4
0.986	5.23235E-4
0.987	5.21573E-4
0.988	5.21243E-4
0.989	5.19055E-4
0.99	5.17956E-4
0.991	5.15894E-4
0.992	5.15279E-4
0.993	5.13443E-4
0.994	5.13439E-4
0.995	5.1134E-4
0.996	5.1053E-4
0.997	5.09656E-4
0.998	5.08072E-4
0.999	5.06554E-4
1.00	5.05893E-4
1.001	5.0368E-4
1.002	5.02958E-4
1.003	5.01251E-4
1.004	5.00982E-4
1.005	4.98756E-4
1.006	4.98115E-4
1.007	4.96734E-4
1.008	4.95543E-4
1.009	4.94369E-4
1.01	4.93379E-4
1.011	4.92393E-4
1.012	4.90494E-4
1.013	4.89269E-4
1.014	4.88135E-4
1.015	4.8721E-4
1.016	4.85643E-4
1.017	4.84611E-4
1.018	4.83427E-4
1.019	4.82803E-4
1.02	4.80824E-4
1.021	4.80349E-4
1.022	4.78382E-4
1.023	4.77895E-4
1.024	4.76809E-4
1.025	4.7547E-4
1.026	4.74567E-4
1.027	4.73496E-4
1.028	4.72415E-4
1.029	4.71264E-4
1.03	4.69875E-4
1.031	4.6917E-4
1.032	4.67359E-4
1.033	4.67245E-4
1.034	4.65028E-4
1.035	4.64885E-4
1.036	4.63704E-4
1.037	4.62114E-4
1.038	4.61623E-4
1.039	4.59689E-4
1.04	4.58871E-4
1.041	4.5824E-4
1.042	4.56713E-4
1.043	4.56114E-4
1.044	4.55112E-4
1.045	4.53876E-4
1.046	4.52502E-4
1.047	4.52334E-4
1.048	4.50446E-4
1.049	4.49754E-4
1.05	4.47864E-4
1.051	4.47214E-4
1.052	4.45986E-4
1.053	4.45016E-4
1.054	4.43763E-4
1.055	4.44205E-4
1.056	4.42328E-4
1.057	4.41508E-4
1.058	4.40234E-4
1.059	4.39683E-4
1.06	4.37569E-4
1.061	4.371E-4
1.062	4.36632E-4
1.063	4.35622E-4
1.064	4.33674E-4
1.065	4.33348E-4
1.066	4.3243E-4
1.067	4.31574E-4
1.068	4.29956E-4
1.069	4.30124E-4
1.07	4.28652E-4
1.071	4.27938E-4
1.072	4.26448E-4
1.073	4.26677E-4
1.074	4.24486E-4
1.075	4.24288E-4
1.076	4.2365E-4
1.077	4.22131E-4
1.078	4.20782E-4
1.079	4.21665E-4
1.08	4.1932E-4
1.081	4.19162E-4
1.082	4.17908E-4
1.083	4.18309E-4
1.084	4.15516E-4
1.085	4.15539E-4
1.086	4.14252E-4
1.087	4.14076E-4
1.088	4.11649E-4
1.089	4.12229E-4
1.09	4.10974E-4
1.091	4.10736E-4
1.092	4.08423E-4
1.093	4.08671E-4
1.094	4.07581E-4
1.095	4.07776E-4
1.096	4.04868E-4
1.097	4.05033E-4
1.098	4.03775E-4
1.099	4.04736E-4
1.10	4.03083E-4
1.101	4.01821E-4
1.102	4.00425E-4
1.103	4.00825E-4
1.104	3.99703E-4
1.105	4.00257E-4
1.106	3.97224E-4
1.107	3.97146E-4
1.108	3.9592E-4
1.109	3.95839E-4
1.11	3.94099E-4
1.111	3.95151E-4
1.112	3.94187E-4
1.113	3.94398E-4
1.114	3.92937E-4
1.115	3.93054E-4
1.116	3.91639E-4
1.117	3.90461E-4
1.118	3.88906E-4
1.119	3.88709E-4
1.12	3.87987E-4
1.121	3.87147E-4
1.122	3.85751E-4
1.123	3.86133E-4
1.124	3.84818E-4
1.125	3.85077E-4
1.126	3.8374E-4
1.127	3.83533E-4
1.128	3.8189E-4
1.129	3.8234E-4
1.13	3.80936E-4
1.131	3.80818E-4
1.132	3.79375E-4
1.133	3.7879E-4
1.134	3.77644E-4
1.135	3.77752E-4
1.136	3.76668E-4
1.137	3.77E-4
1.138	3.7537E-4
1.139	3.76091E-4
1.14	3.74474E-4
1.141	3.74411E-4
1.142	3.727E-4
1.143	3.72835E-4
1.144	3.71774E-4
1.145	3.71685E-4
1.146	3.7041E-4
1.147	3.70432E-4
1.148	3.69296E-4
1.149	3.69542E-4
1.15	3.68245E-4
1.151	3.68374E-4
1.152	3.67123E-4
1.153	3.67267E-4
1.154	3.65734E-4
1.155	3.66151E-4
1.156	3.64695E-4
1.157	3.65178E-4
1.158	3.64E-4
1.159	3.63846E-4
1.16	3.62818E-4
1.161	3.63072E-4
1.162	3.61085E-4
1.163	3.61981E-4
1.164	3.60863E-4
1.165	3.60767E-4
1.166	3.5996E-4
1.167	3.59701E-4
1.168	3.58787E-4
1.169	3.5869E-4
1.17	3.57496E-4
1.171	3.57506E-4
1.172	3.56815E-4
1.173	3.56837E-4
1.174	3.55558E-4
1.175	3.55936E-4
1.176	3.55127E-4
1.177	3.54304E-4
1.178	3.53859E-4
1.179	3.54187E-4
1.18	3.52708E-4
1.181	3.5285E-4
1.182	3.52024E-4
1.183	3.52454E-4
1.184	3.51703E-4
1.185	3.51661E-4
1.186	3.51288E-4
1.187	3.51318E-4
1.188	3.51234E-4
1.189	3.51409E-4
1.19	3.51534E-4
1.191	3.48617E-4
1.192	3.47645E-4
1.193	3.47832E-4
1.194	3.47136E-4
1.195	3.46549E-4
1.196	3.46309E-4
1.197	3.45769E-4
1.198	3.45742E-4
1.199	3.44763E-4
1.20	3.45054E-4
1.201	3.43965E-4
1.202	3.44086E-4
1.203	3.42953E-4
1.204	3.4232E-4
1.205	3.41735E-4
1.206	3.40886E-4
1.207	3.40428E-4
1.208	3.39957E-4
1.209	3.41963E-4
1.21	3.42568E-4
1.211	3.41917E-4
1.212	3.41681E-4
1.213	3.40191E-4
1.214	3.39278E-4
1.215	3.38661E-4
1.216	3.38543E-4
1.217	3.38034E-4
1.218	3.37634E-4
1.219	3.37788E-4
1.22	3.36981E-4
1.221	3.36857E-4
1.222	3.3625E-4
1.223	3.35736E-4
1.224	3.35138E-4
1.225	3.34924E-4
1.226	3.34473E-4
1.227	3.34692E-4
1.228	3.35714E-4
1.229	3.34935E-4
1.23	3.34507E-4
1.231	3.34701E-4
1.232	3.33976E-4
1.233	3.3367E-4
1.234	3.32749E-4
1.235	3.32992E-4
1.236	3.3201E-4
1.237	3.32587E-4
1.238	3.3197E-4
1.239	3.31859E-4
1.24	3.30924E-4
1.241	3.30581E-4
1.242	3.30234E-4
1.243	3.30178E-4
1.244	3.2912E-4
1.245	3.29064E-4
1.246	3.29188E-4
1.247	3.29061E-4
1.248	3.29511E-4
1.249	3.30118E-4
1.25	3.29372E-4
1.251	3.29436E-4
1.252	3.29312E-4
1.253	3.28206E-4
1.254	3.27619E-4
1.255	3.27513E-4
1.256	3.27052E-4
1.257	3.27685E-4
1.258	3.27314E-4
1.259	3.27116E-4
1.26	3.26403E-4
1.261	3.26801E-4
1.262	3.26013E-4
1.263	3.26164E-4
1.264	3.25119E-4
1.265	3.25599E-4
1.266	3.26122E-4
1.267	3.2665E-4
1.268	3.26216E-4
1.269	3.25775E-4
1.27	3.24986E-4
1.271	3.25523E-4
1.272	3.24633E-4
1.273	3.25044E-4
1.274	3.24487E-4
1.275	3.2435E-4
1.276	3.23931E-4
1.277	3.23824E-4
1.278	3.25254E-4
1.279	3.251E-4
1.28	3.24233E-4
1.281	3.24599E-4
1.282	3.23698E-4
1.283	3.23922E-4
1.284	3.2339E-4
1.285	3.234E-4
1.286	3.23367E-4
1.287	3.2455E-4
1.288	3.24584E-4
1.289	3.24819E-4
1.29	3.23372E-4
1.291	3.24004E-4
1.292	3.22914E-4
1.293	3.24082E-4
1.294	3.23097E-4
1.295	3.24669E-4
1.296	3.24509E-4
1.297	3.23884E-4
1.298	3.23426E-4
1.299	3.22913E-4
1.30	3.22656E-4
1.301	3.23246E-4
1.302	3.23508E-4
1.303	3.24803E-4
1.304	3.24331E-4
1.305	3.23938E-4
1.306	3.23314E-4
1.307	3.23866E-4
1.308	3.2343E-4
1.309	3.24986E-4
1.31	3.24336E-4
1.311	3.24036E-4
1.312	3.22862E-4
1.313	3.23461E-4
1.314	3.2356E-4
1.315	3.25015E-4
1.316	3.24771E-4
1.317	3.25174E-4
1.318	3.24478E-4
1.319	3.24805E-4
1.32	3.241E-4
1.321	3.25576E-4
1.322	3.25449E-4
1.323	3.25306E-4
1.324	3.2487E-4
1.325	3.25873E-4
1.326	3.2537E-4
1.327	3.27338E-4
1.328	3.26369E-4
1.329	3.26649E-4
1.33	3.25802E-4
1.331	3.26391E-4
1.332	3.2761E-4
1.333	3.27709E-4
1.334	3.27039E-4
1.335	3.27285E-4
1.336	3.27036E-4
1.337	3.28872E-4
1.338	3.28542E-4
1.339	3.28378E-4
1.34	3.27993E-4
1.341	3.2891E-4
1.342	3.29184E-4
1.343	3.29371E-4
1.344	3.29095E-4
1.345	3.3006E-4
1.346	3.30561E-4
1.347	3.30803E-4
1.348	3.30199E-4
1.349	3.32147E-4
1.35	3.31141E-4
1.351	3.32405E-4
1.352	3.32893E-4
1.353	3.3338E-4
1.354	3.32884E-4
1.355	3.34531E-4
1.356	3.3459E-4
1.357	3.35499E-4
1.358	3.36032E-4
1.359	3.37008E-4
1.36	3.36006E-4
1.361	3.35748E-4
1.362	3.33734E-4
1.363	3.35227E-4
1.364	3.35479E-4
1.365	3.35869E-4
1.366	3.37258E-4
1.367	3.39121E-4
1.368	3.36381E-4
1.369	3.37775E-4
1.37	3.36775E-4
1.371	3.38097E-4
1.372	3.38445E-4
1.373	3.40573E-4
1.374	3.40251E-4
1.375	3.42E-4
1.376	3.4277E-4
1.377	3.42672E-4
1.378	3.4425E-4
1.379	3.45557E-4
1.38	3.45364E-4
1.381	3.45706E-4
1.382	3.44512E-4
1.383	3.44521E-4
1.384	3.44189E-4
1.385	3.45912E-4
1.386	3.45736E-4
1.387	3.48114E-4
1.388	3.48107E-4
1.389	3.50016E-4
1.39	3.50968E-4
1.391	3.51418E-4
1.392	3.50626E-4
1.393	3.52939E-4
1.394	3.51436E-4
1.395	3.52442E-4
1.396	3.52818E-4
1.397	3.54594E-4
1.398	3.53883E-4
1.399	3.55305E-4
1.40	3.55703E-4
1.401	3.56759E-4
1.402	3.56804E-4
1.403	3.58197E-4
1.404	3.57977E-4
1.405	3.59336E-4
1.406	3.59287E-4
1.407	3.59795E-4
1.408	3.60563E-4
1.409	3.62364E-4
1.41	3.62988E-4
1.411	3.64656E-4
1.412	3.64541E-4
1.413	3.66004E-4
1.414	3.66507E-4
1.415	3.67014E-4
1.416	3.68306E-4
1.417	3.69422E-4
1.418	3.69616E-4
1.419	3.70659E-4
1.42	3.71172E-4
1.421	3.72563E-4
1.422	3.72954E-4
1.423	3.7452E-4
1.424	3.74969E-4
1.425	3.76574E-4
1.426	3.77009E-4
1.427	3.78381E-4
1.428	3.7845E-4
1.429	3.81581E-4
1.43	3.81682E-4
1.431	3.82033E-4
1.432	3.82374E-4
1.433	3.84254E-4
1.434	3.84722E-4
1.435	3.85842E-4
1.436	3.86817E-4
1.437	3.88358E-4
1.438	3.8827E-4
1.439	3.90075E-4
1.44	3.91787E-4
1.441	3.93632E-4
1.442	3.92501E-4
1.443	3.94338E-4
1.444	3.95285E-4
1.445	3.95661E-4
1.446	3.96799E-4
1.447	3.98221E-4
1.448	3.98867E-4
1.449	4.00552E-4
1.45	4.01886E-4
1.451	4.04036E-4
1.452	4.05047E-4
1.453	4.06598E-4
1.454	4.0764E-4
1.455	4.0944E-4
1.456	4.09566E-4
1.457	4.10729E-4
1.458	4.11762E-4
1.459	4.12948E-4
1.46	4.13744E-4
1.461	4.16427E-4
1.462	4.16577E-4
1.463	4.17208E-4
1.464	4.18688E-4
1.465	4.2045E-4
1.466	4.22527E-4
1.467	4.22853E-4
1.468	4.24245E-4
1.469	4.26846E-4
1.47	4.28324E-4
1.471	4.28963E-4
1.472	4.2998E-4
1.473	4.31251E-4
1.474	4.32968E-4
1.475	4.34135E-4
1.476	4.35689E-4
1.477	4.36736E-4
1.478	4.40394E-4
1.479	4.41404E-4
1.48	4.41484E-4
1.481	4.43223E-4
1.482	4.45473E-4
1.483	4.46387E-4
1.484	4.47242E-4
1.485	4.49448E-4
1.486	4.51854E-4
1.487	4.54063E-4
1.488	4.54036E-4
1.489	4.55483E-4
1.49	4.57536E-4
1.491	4.58214E-4
1.492	4.60377E-4
1.493	4.63639E-4
1.494	4.65201E-4
1.495	4.65705E-4
1.496	4.66627E-4
1.497	4.67821E-4
1.498	4.70317E-4
1.499	4.73297E-4
1.5	4.74924E-4
1.501	4.7523E-4
1.502	4.77399E-4
1.503	4.78578E-4
1.504	4.8145E-4
1.505	4.84358E-4
1.506	4.85957E-4
1.507	4.8645E-4
1.508	4.88548E-4
1.509	4.90069E-4
1.51	4.93622E-4
1.511	4.94604E-4
1.512	4.96225E-4
1.513	4.97315E-4
1.514	4.99427E-4
1.515	5.0087E-4
1.516	5.05825E-4
1.517	5.05796E-4
1.518	5.07512E-4
1.519	5.08448E-4
1.52	5.11548E-4
1.521	5.14956E-4
1.522	5.1602E-4
1.523	5.17275E-4
1.524	5.1989E-4
1.525	5.20805E-4
1.526	5.24524E-4
1.527	5.2665E-4
1.528	5.28766E-4
1.529	5.29525E-4
1.53	5.33057E-4
1.531	5.35636E-4
1.532	5.37995E-4
1.533	5.38278E-4
1.534	5.40955E-4
1.535	5.42422E-4
1.536	5.46947E-4
1.537	5.48052E-4
1.538	5.50193E-4
1.539	5.51403E-4
1.54	5.54239E-4
1.541	5.56034E-4
1.542	5.60862E-4
1.543	5.61305E-4
1.544	5.64116E-4
1.545	5.64815E-4
1.546	5.68474E-4
1.547	5.71507E-4
1.548	5.74147E-4
1.549	5.74698E-4
1.55	5.77452E-4
1.551	5.78997E-4
1.552	5.84634E-4
1.553	5.85096E-4
1.554	5.87833E-4
1.555	5.88886E-4
1.556	5.92005E-4
1.557	5.9552E-4
1.558	5.97622E-4
1.559	5.98415E-4
1.56	6.01589E-4
1.561	6.0263E-4
1.562	6.08979E-4
1.563	6.08784E-4
1.564	6.11615E-4
1.565	6.13026E-4
1.566	6.16613E-4
1.567	6.20261E-4
1.568	6.23373E-4
1.569	6.2326E-4
1.57	6.26592E-4
1.571	6.27261E-4
1.572	6.3325E-4
1.573	6.3479E-4
1.574	6.37134E-4
1.575	6.37965E-4
1.576	6.41618E-4
1.577	6.44276E-4
1.578	6.49342E-4
1.579	6.4989E-4
1.58	6.52482E-4
1.581	6.53626E-4
1.582	6.57861E-4
1.583	6.61177E-4
1.584	6.64409E-4
1.585	6.65354E-4
1.586	6.69173E-4
1.587	6.70463E-4
1.588	6.76766E-4
1.589	6.77039E-4
1.59	6.80445E-4
1.591	6.81932E-4
1.592	6.88572E-4
1.593	6.8974E-4
1.594	6.91625E-4
1.595	6.92562E-4
1.596	6.96927E-4
1.597	6.99514E-4
1.598	7.05212E-4
1.599	7.04925E-4
1.6	7.09153E-4
1.601	7.10502E-4
1.602	7.16954E-4
1.603	7.18304E-4
1.604	7.21413E-4
1.605	7.22676E-4
1.606	7.26884E-4
1.607	7.31274E-4
1.608	7.34026E-4
1.609	7.35501E-4
1.61	7.39392E-4
1.611	7.41826E-4
1.612	7.48385E-4
1.613	7.48152E-4
1.614	7.51954E-4
1.615	7.52842E-4
1.616	7.58076E-4
1.617	7.62247E-4
1.618	7.64596E-4
1.619	7.65429E-4
1.62	7.69652E-4
1.621	7.74153E-4
1.622	7.78969E-4
1.623	7.79323E-4
1.624	7.84158E-4
1.625	7.85719E-4
1.626	7.92607E-4
1.627	7.939E-4
1.628	7.97365E-4
1.629	7.98693E-4
1.63	8.0302E-4
1.631	8.07482E-4
1.632	8.09578E-4
1.633	8.11169E-4
1.634	8.15198E-4
1.635	8.19665E-4
1.636	8.25757E-4
1.637	8.2561E-4
1.638	8.29429E-4
1.639	8.33018E-4
1.64	8.39347E-4
1.641	8.39636E-4
1.642	8.42598E-4
1.643	8.44877E-4
1.644	8.52549E-4
1.645	8.54138E-4
1.646	8.57314E-4
1.647	8.59091E-4
1.648	8.66319E-4
1.649	8.68263E-4
1.65	8.71668E-4
1.651	8.73059E-4
1.652	8.779E-4
1.653	8.83633E-4
1.654	8.85386E-4
1.655	8.86809E-4
1.656	8.91665E-4
1.657	8.97999E-4
1.658	9.00125E-4
1.659	9.01732E-4
1.66	9.07135E-4
1.661	9.13603E-4
1.662	9.16073E-4
1.663	9.17942E-4
1.664	9.23908E-4
1.665	9.2846E-4
1.666	9.31327E-4
1.667	9.34814E-4
1.668	9.4209E-4
1.669	9.48026E-4
1.67	9.53637E-4
1.671	9.46851E-4
1.672	9.49365E-4
1.673	9.52553E-4
1.674	9.56773E-4
1.675	9.66E-4
1.676	9.68142E-4
1.677	9.72406E-4
1.678	9.75759E-4
1.679	9.79357E-4
1.68	9.82881E-4
1.681	9.86414E-4
1.682	9.89989E-4
1.683	9.9418E-4
1.684	9.97645E-4
1.685	0.001
1.686	0.001
1.687	0.00101
1.688	0.00101
1.689	0.00102
1.69	0.00102
1.691	0.00102
1.692	0.00103
1.693	0.00103
1.694	0.00103
1.695	0.00104
1.696	0.00104
1.697	0.00105
1.698	0.00105
1.699	0.00105
1.7	0.00106
1.701	0.00106
1.702	0.00106
1.703	0.00107
1.704	0.00107
1.705	0.00108
1.706	0.00108
1.707	0.00109
1.708	0.00109
1.709	0.00109
1.71	0.0011
1.711	0.0011
1.712	0.0011
1.713	0.00111
1.714	0.00111
1.715	0.00112
1.716	0.00112
1.717	0.00113
1.718	0.00113
1.719	0.00113
1.72	0.00113
1.721	0.00114
1.722	0.00114
1.723	0.00115
1.724	0.00115
1.725	0.00115
1.726	0.00115
1.727	0.00117
1.728	0.00117
1.729	0.00117
1.73	0.00117
1.731	0.00118
1.732	0.00118
1.733	0.00118
1.734	0.00119
1.735	0.00119
1.736	0.00119
1.737	0.0012
1.738	0.0012
1.739	0.00121
1.74	0.00121
1.741	0.00121
1.742	0.00122
1.743	0.00123
1.744	0.00123
1.745	0.00123
1.746	0.00123
1.747	0.00124
1.748	0.00124
1.749	0.00124
1.75	0.00124
1.751	0.00125
1.752	0.00125
1.753	0.00126
1.754	0.00126
1.755	0.00127
1.756	0.00127
1.757	0.00128
1.758	0.00128
1.759	0.00129
1.76	0.00129
1.761	0.00129
1.762	0.00129
1.763	0.0013
1.764	0.0013
1.765	0.00132
1.766	0.00131
1.767	0.00133
1.768	0.00133
1.769	0.00133
1.77	0.00133
1.771	0.00134
1.772	0.00134
1.773	0.00134
1.774	0.00134
1.775	0.00134
1.776	0.00134
1.777	0.00135
1.778	0.00134
1.779	0.00136
1.78	0.00135
1.781	0.00136
1.782	0.00135
1.783	0.00136
1.784	0.00135
1.785	0.00136
1.786	0.00135
1.787	0.00136
1.788	0.00136
1.789	0.00137
1.79	0.00138
1.791	0.00139
1.792	0.00139
1.793	0.00139
1.794	0.00139
1.795	0.0014
1.796	0.0014
1.797	0.00141
1.798	0.00141
1.799	0.00142
1.8	0.00141
1.801	0.00142
1.802	0.00143
1.803	0.00143
1.804	0.00143
1.805	0.00144
1.806	0.00143
1.807	0.00143
1.808	0.00144
1.809	0.00144
1.81	0.00144
1.811	0.00145
1.812	0.00145
1.813	0.00146
1.814	0.00146
1.815	0.00147
1.816	0.00146
1.817	0.00147
1.818	0.00147
1.819	0.00147
1.82	0.00147
1.821	0.00147
1.822	0.00147
1.823	0.00149
1.824	0.00148
1.825	0.00149
1.826	0.00149
1.827	0.00149
1.828	0.00149
1.829	0.0015
1.83	0.0015
1.831	0.0015
1.832	0.0015
1.833	0.0015
1.834	0.00151
1.835	0.00152
1.836	0.00151
1.837	0.00153
1.838	0.00152
1.839	0.00152
1.84	0.00151
1.841	0.00151
1.842	0.00151
1.843	0.00152
1.844	0.00152
1.845	0.00153
1.846	0.00153
1.847	0.00153
1.848	0.00153
1.849	0.00154
1.85	0.00153
1.851	0.00154
1.852	0.00154
1.853	0.00154
1.854	0.00154
1.855	0.00155
1.856	0.00154
1.857	0.00156
1.858	0.00155
1.859	0.00155
1.86	0.00154
1.861	0.00155
1.862	0.00155
1.863	0.00155
1.864	0.00155
1.865	0.00157
1.866	0.00157
1.867	0.00159
1.868	0.0016
1.869	0.00161
1.87	0.00159
1.871	0.00159
1.872	0.00158
1.873	0.00157
1.874	0.00156
1.875	0.00155
1.876	0.00154
1.877	0.00153
1.878	0.00155
1.879	0.00156
1.88	0.00157
1.881	0.00158
1.882	0.00157
1.883	0.00158
1.884	0.00158
1.885	0.00158
1.886	0.00159
1.887	0.00158
1.888	0.00159
1.889	0.00159
1.89	0.00159
1.891	0.00159
1.892	0.00158
1.893	0.00159
1.894	0.00159
1.895	0.00159
1.896	0.00159
1.897	0.00159
1.898	0.00159
1.899	0.00159
1.9	0.00159
1.901	0.0016
1.902	0.0016
1.903	0.0016
1.904	0.0016
1.905	0.0016
1.906	0.0016
1.907	0.00161
1.908	0.00161
1.909	0.00161
1.91	0.00161
1.911	0.00161
1.912	0.00161
1.913	0.00162
1.914	0.00163
1.915	0.00164
1.916	0.00164
1.917	0.00166
1.918	0.00164
1.919	0.00162
1.92	0.00162
1.921	0.00161
1.922	0.00161
1.923	0.00161
1.924	0.00162
1.925	0.00163
1.926	0.00163
1.927	0.00163
1.928	0.00163
1.929	0.00163
1.93	0.00163
1.931	0.00163
1.932	0.00164
1.933	0.00163
1.934	0.00163
1.935	0.00162
1.936	0.00162
1.937	0.00162
1.938	0.00162
1.939	0.00162
1.94	0.00162
1.941	0.00162
1.942	0.00162
1.943	0.00161
1.944	0.00161
1.945	0.00161
1.946	0.00162
1.947	0.00161
1.948	0.00161
1.949	0.00161
1.95	0.00161
1.951	0.00161
1.952	0.00161
1.953	0.00161
1.954	0.00162
1.955	0.00161
1.956	0.00162
1.957	0.00161
1.958	0.00161
1.959	0.00161
1.96	0.00161
1.961	0.00161
1.962	0.00161
1.963	0.00161
1.964	0.00161
1.965	0.00161
1.966	0.00161
1.967	0.00161
1.968	0.00162
1.969	0.00161
1.97	0.00161
1.971	0.00161
1.972	0.00161
1.973	0.00161
1.974	0.00161
1.975	0.00161
1.976	0.00161
1.977	0.00161
1.978	0.00161
1.979	0.00161
1.98	0.00162
1.981	0.0016
1.982	0.00161
1.983	0.0016
1.984	0.00161
1.985	0.00161
1.986	0.00161
1.987	0.0016
1.988	0.00161
1.989	0.00161
1.99	0.00161
1.991	0.0016
1.992	0.00161
1.993	0.0016
1.994	0.00161
1.995	0.0016
1.996	0.00161
1.997	0.0016
1.998	0.0016
1.999	0.0016
2	0.0016
2.00018	0.00158
2.00057	0.00159
2.00095	0.00159
2.00134	0.00158
2.00172	0.00157
2.00211	0.00157
2.0025	0.00157
2.00288	0.00157
2.00327	0.00157
2.00366	0.00157
2.00404	0.00157
2.00443	0.00158
2.00482	0.00159
2.00521	0.00158
2.0056	0.00158
2.00598	0.00158
2.00637	0.00158
2.00676	0.00157
2.00715	0.00158
2.00754	0.0016
2.00792	0.00159
2.00831	0.00157
2.0087	0.00157
2.00909	0.00157
2.00948	0.00158
2.00987	0.00159
2.01026	0.00159
2.01065	0.00159
2.01104	0.00157
2.01143	0.00157
2.01182	0.00158
2.01221	0.00158
2.0126	0.00158
2.01299	0.00158
2.01338	0.00158
2.01377	0.00157
2.01416	0.00156
2.01456	0.00155
2.01495	0.00155
2.01534	0.00157
2.01573	0.00158
2.01612	0.00158
2.01651	0.00158
2.01691	0.00157
2.0173	0.00156
2.01769	0.00157
2.01808	0.00157
2.01848	0.00157
2.01887	0.00157
2.01926	0.00158
2.01966	0.00159
2.02005	0.0016
2.02044	0.0016
2.02084	0.00159
2.02123	0.00158
2.02162	0.00158
2.02202	0.00159
2.02241	0.00159
2.02281	0.00158
2.0232	0.00157
2.0236	0.00157
2.02399	0.00156
2.02439	0.00156
2.02478	0.00156
2.02518	0.00157
2.02557	0.00158
2.02597	0.00158
2.02636	0.00158
2.02676	0.00157
2.02716	0.00156
2.02755	0.00156
2.02795	0.00157
2.02835	0.00158
2.02874	0.00159
2.02914	0.0016
2.02954	0.00161
2.02993	0.00162
2.03033	0.00161
2.03073	0.00159
2.03113	0.00158
2.03152	0.00158
2.03192	0.00157
2.03232	0.00157
2.03272	0.00158
2.03312	0.00158
2.03352	0.00157
2.03392	0.00156
2.03431	0.00156
2.03471	0.00156
2.03511	0.00157
2.03551	0.00157
2.03591	0.00156
2.03631	0.00156
2.03671	0.00156
2.03711	0.00156
2.03751	0.00156
2.03791	0.00156
2.03831	0.00156
2.03871	0.00156
2.03911	0.00154
2.03951	0.00155
2.03992	0.00157
2.04032	0.00157
2.04072	0.00156
2.04112	0.00155
2.04152	0.00156
2.04192	0.00156
2.04233	0.00155
2.04273	0.00155
2.04313	0.00155
2.04353	0.00155
2.04394	0.00156
2.04434	0.00156
2.04474	0.00156
2.04515	0.00157
2.04555	0.00157
2.04595	0.00157
2.04636	0.00157
2.04676	0.00157
2.04716	0.00156
2.04757	0.00155
2.04797	0.00154
2.04838	0.00152
2.04878	0.00152
2.04919	0.00154
2.04959	0.00156
2.05	0.00156
2.0504	0.00156
2.05081	0.00154
2.05121	0.00154
2.05162	0.00155
2.05202	0.00157
2.05243	0.00158
2.05284	0.00157
2.05324	0.00155
2.05365	0.00154
2.05406	0.00156
2.05446	0.00157
2.05487	0.00156
2.05528	0.00155
2.05569	0.00154
2.05609	0.00155
2.0565	0.00155
2.05691	0.00156
2.05732	0.00158
2.05772	0.0016
2.05813	0.00159
2.05854	0.00157
2.05895	0.00156
2.05936	0.00156
2.05977	0.00156
2.06018	0.00156
2.06059	0.00156
2.061	0.00156
2.06141	0.00156
2.06182	0.00156
2.06223	0.00157
2.06264	0.00156
2.06305	0.00155
2.06346	0.00154
2.06387	0.00152
2.06428	0.00152
2.06469	0.00153
2.0651	0.00154
2.06551	0.00154
2.06592	0.00155
2.06633	0.00157
2.06675	0.00159
2.06716	0.0016
2.06757	0.00158
2.06798	0.00155
2.0684	0.00154
2.06881	0.00154
2.06922	0.00155
2.06963	0.00156
2.07005	0.00156
2.07046	0.00155
2.07087	0.00155
2.07129	0.00155
2.0717	0.00156
2.07211	0.00156
2.07253	0.00156
2.07294	0.00156
2.07336	0.00156
2.07377	0.00156
2.07419	0.00155
2.0746	0.00154
2.07502	0.00152
2.07543	0.00151
2.07585	0.00152
2.07626	0.00153
2.07668	0.00153
2.07709	0.00153
2.07751	0.00153
2.07793	0.00154
2.07834	0.00154
2.07876	0.00154
2.07918	0.00154
2.07959	0.00153
2.08001	0.00152
2.08043	0.00153
2.08085	0.00154
2.08126	0.00154
2.08168	0.00154
2.0821	0.00153
2.08252	0.00153
2.08293	0.00153
2.08335	0.00152
2.08377	0.00152
2.08419	0.00153
2.08461	0.00154
2.08503	0.00155
2.08545	0.00155
2.08587	0.00154
2.08629	0.00153
2.08671	0.00152
2.08713	0.00151
2.08755	0.0015
2.08797	0.0015
2.08839	0.00151
2.08881	0.00152
2.08923	0.00152
2.08965	0.00151
2.09007	0.0015
2.09049	0.0015
2.09091	0.00151
2.09134	0.00151
2.09176	0.00151
2.09218	0.00151
2.0926	0.00151
2.09302	0.00151
2.09345	0.00152
2.09387	0.00152
2.09429	0.00152
2.09471	0.00152
2.09514	0.00152
2.09556	0.00152
2.09598	0.00151
2.09641	0.00151
2.09683	0.0015
2.09726	0.0015
2.09768	0.00151
2.0981	0.00152
2.09853	0.00152
2.09895	0.00151
2.09938	0.0015
2.0998	0.0015
2.10023	0.00152
2.10065	0.00153
2.10108	0.00152
2.10151	0.00151
2.10193	0.0015
2.10236	0.00151
2.10278	0.00151
2.10321	0.0015
2.10364	0.00149
2.10406	0.00147
2.10449	0.00145
2.10492	0.00145
2.10535	0.00147
2.10577	0.00149
2.1062	0.0015
2.10663	0.0015
2.10706	0.0015
2.10748	0.0015
2.10791	0.00149
2.10834	0.00148
2.10877	0.00147
2.1092	0.00147
2.10963	0.00148
2.11006	0.00148
2.11049	0.00148
2.11092	0.00148
2.11135	0.00147
2.11178	0.00148
2.11221	0.00148
2.11264	0.00149
2.11307	0.00149
2.1135	0.00149
2.11393	0.00148
2.11436	0.00146
2.11479	0.00146
2.11522	0.00148
2.11565	0.0015
2.11609	0.00151
2.11652	0.0015
2.11695	0.00148
2.11738	0.00147
2.11781	0.00148
2.11825	0.00148
2.11868	0.00148
2.11911	0.00148
2.11954	0.00148
2.11998	0.00148
2.12041	0.00148
2.12085	0.00148
2.12128	0.00148
2.12171	0.00148
2.12215	0.00147
2.12258	0.00146
2.12302	0.00146
2.12345	0.00147
2.12389	0.00147
2.12432	0.00147
2.12476	0.00148
2.12519	0.00147
2.12563	0.00147
2.12606	0.00147
2.1265	0.00146
2.12693	0.00146
2.12737	0.00145
2.12781	0.00145
2.12824	0.00145
2.12868	0.00146
2.12912	0.00147
2.12955	0.00147
2.12999	0.00147
2.13043	0.00147
2.13087	0.00147
2.13131	0.00147
2.13174	0.00148
2.13218	0.00148
2.13262	0.00148
2.13306	0.00147
2.1335	0.00148
2.13394	0.00148
2.13438	0.00148
2.13482	0.00146
2.13525	0.00144
2.13569	0.00144
2.13613	0.00145
2.13657	0.00145
2.13701	0.00145
2.13746	0.00145
2.1379	0.00145
2.13834	0.00146
2.13878	0.00146
2.13922	0.00146
2.13966	0.00147
2.1401	0.00147
2.14054	0.00147
2.14099	0.00147
2.14143	0.00146
2.14187	0.00146
2.14231	0.00145
2.14275	0.00145
2.1432	0.00145
2.14364	0.00145
2.14408	0.00144
2.14453	0.00144
2.14497	0.00145
2.14541	0.00145
2.14586	0.00145
2.1463	0.00145
2.14675	0.00144
2.14719	0.00144
2.14764	0.00144
2.14808	0.00145
2.14853	0.00145
2.14897	0.00144
2.14942	0.00144
2.14986	0.00144
2.15031	0.00144
2.15075	0.00145
2.1512	0.00145
2.15165	0.00146
2.15209	0.00145
2.15254	0.00143
2.15299	0.00143
2.15343	0.00143
2.15388	0.00143
2.15433	0.00143
2.15478	0.00143
2.15522	0.00144
2.15567	0.00145
2.15612	0.00145
2.15657	0.00143
2.15702	0.00142
2.15746	0.00142
2.15791	0.00142
2.15836	0.00142
2.15881	0.00143
2.15926	0.00145
2.15971	0.00145
2.16016	0.00144
2.16061	0.00143
2.16106	0.00143
2.16151	0.00143
2.16196	0.00143
2.16241	0.00142
2.16286	0.00142
2.16332	0.00142
2.16377	0.00142
2.16422	0.00142
2.16467	0.00142
2.16512	0.00142
2.16557	0.00143
2.16603	0.00143
2.16648	0.00143
2.16693	0.00143
2.16738	0.00142
2.16784	0.00141
2.16829	0.00141
2.16874	0.00141
2.1692	0.00141
2.16965	0.00142
2.17011	0.00141
2.17056	0.0014
2.17101	0.0014
2.17147	0.0014
2.17192	0.00141
2.17238	0.00141
2.17283	0.00141
2.17329	0.00142
2.17374	0.00141
2.1742	0.00141
2.17466	0.00141
2.17511	0.00141
2.17557	0.00141
2.17602	0.00141
2.17648	0.00141
2.17694	0.00141
2.17739	0.00141
2.17785	0.00141
2.17831	0.0014
2.17877	0.0014
2.17923	0.00139
2.17968	0.00139
2.18014	0.00139
2.1806	0.00138
2.18106	0.00138
2.18152	0.00139
2.18198	0.0014
2.18244	0.0014
2.18289	0.0014
2.18335	0.0014
2.18381	0.00139
2.18427	0.00139
2.18473	0.0014
2.18519	0.0014
2.18566	0.0014
2.18612	0.0014
2.18658	0.0014
2.18704	0.0014
2.1875	0.0014
2.18796	0.00139
2.18842	0.00138
2.18888	0.00138
2.18935	0.00139
2.18981	0.0014
2.19027	0.00141
2.19073	0.0014
2.1912	0.0014
2.19166	0.00139
2.19212	0.00139
2.19259	0.00138
2.19305	0.00137
2.19351	0.00136
2.19398	0.00136
2.19444	0.00138
2.19491	0.00139
2.19537	0.0014
2.19584	0.00139
2.1963	0.00138
2.19677	0.00137
2.19723	0.00137
2.1977	0.00137
2.19816	0.00137
2.19863	0.00137
2.1991	0.00138
2.19956	0.00138
2.20003	0.00137
2.2005	0.00137
2.20096	0.00136
2.20143	0.00137
2.2019	0.00137
2.20236	0.00138
2.20283	0.00138
2.2033	0.00137
2.20377	0.00137
2.20424	0.00139
2.20471	0.0014
2.20517	0.00138
2.20564	0.00137
2.20611	0.00136
2.20658	0.00136
2.20705	0.00136
2.20752	0.00137
2.20799	0.00137
2.20846	0.00137
2.20893	0.00137
2.2094	0.00137
2.20987	0.00137
2.21034	0.00136
2.21081	0.00136
2.21129	0.00135
2.21176	0.00134
2.21223	0.00135
2.2127	0.00135
2.21317	0.00136
2.21365	0.00136
2.21412	0.00136
2.21459	0.00136
2.21506	0.00137
2.21554	0.00137
2.21601	0.00136
2.21648	0.00136
2.21696	0.00136
2.21743	0.00136
2.21791	0.00136
2.21838	0.00135
2.21886	0.00135
2.21933	0.00135
2.21981	0.00134
2.22028	0.00135
2.22076	0.00135
2.22123	0.00135
2.22171	0.00135
2.22218	0.00134
2.22266	0.00134
2.22314	0.00134
2.22361	0.00134
2.22409	0.00134
2.22457	0.00134
2.22504	0.00134
2.22552	0.00135
2.226	0.00135
2.22648	0.00135
2.22696	0.00135
2.22743	0.00135
2.22791	0.00135
2.22839	0.00135
2.22887	0.00135
2.22935	0.00134
2.22983	0.00134
2.23031	0.00134
2.23079	0.00135
2.23127	0.00135
2.23175	0.00135
2.23223	0.00135
2.23271	0.00134
2.23319	0.00133
2.23367	0.00133
2.23415	0.00133
2.23463	0.00133
2.23511	0.00133
2.2356	0.00133
2.23608	0.00133
2.23656	0.00133
2.23704	0.00134
2.23753	0.00134
2.23801	0.00134
2.23849	0.00133
2.23898	0.00133
2.23946	0.00133
2.23994	0.00134
2.24043	0.00134
2.24091	0.00133
2.24139	0.00132
2.24188	0.00132
2.24236	0.00132
2.24285	0.00133
2.24333	0.00133
2.24382	0.00132
2.2443	0.00132
2.24479	0.00132
2.24528	0.00133
2.24576	0.00133
2.24625	0.00133
2.24674	0.00133
2.24722	0.00133
2.24771	0.00134
2.2482	0.00134
2.24868	0.00134
2.24917	0.00133
2.24966	0.00131
2.25015	0.0013
2.25064	0.0013
2.25113	0.0013
2.25161	0.00131
2.2521	0.00131
2.25259	0.00132
2.25308	0.00132
2.25357	0.00132
2.25406	0.00131
2.25455	0.00131
2.25504	0.00131
2.25553	0.00131
2.25602	0.00131
2.25651	0.00131
2.257	0.00131
2.2575	0.00131
2.25799	0.00131
2.25848	0.00131
2.25897	0.00131
2.25946	0.00131
2.25995	0.00131
2.26045	0.00131
2.26094	0.00131
2.26143	0.00131
2.26193	0.00131
2.26242	0.00131
2.26291	0.0013
2.26341	0.0013
2.2639	0.00131
2.2644	0.00131
2.26489	0.00131
2.26539	0.00131
2.26588	0.00131
2.26638	0.00131
2.26687	0.00131
2.26737	0.0013
2.26786	0.0013
2.26836	0.0013
2.26885	0.0013
2.26935	0.0013
2.26985	0.00131
2.27034	0.00131
2.27084	0.00131
2.27134	0.00131
2.27184	0.0013
2.27233	0.0013
2.27283	0.00129
2.27333	0.00129
2.27383	0.00129
2.27433	0.00129
2.27483	0.00129
2.27533	0.00129
2.27582	0.00129
2.27632	0.00129
2.27682	0.00129
2.27732	0.00129
2.27782	0.00128
2.27832	0.00128
2.27883	0.00129
2.27933	0.0013
2.27983	0.00129
2.28033	0.00129
2.28083	0.00129
2.28133	0.00129
2.28183	0.00129
2.28234	0.00129
2.28284	0.00129
2.28334	0.00129
2.28384	0.00129
2.28435	0.00129
2.28485	0.00128
2.28535	0.00128
2.28586	0.00129
2.28636	0.00129
2.28687	0.00129
2.28737	0.00128
2.28787	0.00128
2.28838	0.00128
2.28888	0.00129
2.28939	0.00129
2.28989	0.00129
2.2904	0.00129
2.29091	0.00128
2.29141	0.00128
2.29192	0.00127
2.29243	0.00128
2.29293	0.00128
2.29344	0.00128
2.29395	0.00128
2.29445	0.00128
2.29496	0.00128
2.29547	0.00128
2.29598	0.00128
2.29649	0.00128
2.297	0.00128
2.2975	0.00129
2.29801	0.00129
2.29852	0.00129
2.29903	0.00128
2.29954	0.00128
2.30005	0.00127
2.30056	0.00128
2.30107	0.00128
2.30158	0.00128
2.30209	0.00128
2.30261	0.00128
2.30312	0.00128
2.30363	0.00128
2.30414	0.00128
2.30465	0.00127
2.30516	0.00127
2.30568	0.00127
2.30619	0.00127
2.3067	0.00127
2.30722	0.00126
2.30773	0.00126
2.30824	0.00126
2.30876	0.00127
2.30927	0.00127
2.30978	0.00128
2.3103	0.00127
2.31081	0.00127
2.31133	0.00127
2.31184	0.00127
2.31236	0.00127
2.31288	0.00127
2.31339	0.00127
2.31391	0.00127
2.31442	0.00127
2.31494	0.00127
2.31546	0.00127
2.31597	0.00126
2.31649	0.00126
2.31701	0.00125
2.31753	0.00126
2.31805	0.00127
2.31856	0.00127
2.31908	0.00126
2.3196	0.00126
2.32012	0.00126
2.32064	0.00126
2.32116	0.00126
2.32168	0.00126
2.3222	0.00126
2.32272	0.00127
2.32324	0.00127
2.32376	0.00127
2.32428	0.00127
2.3248	0.00127
2.32532	0.00127
2.32584	0.00127
2.32636	0.00126
2.32689	0.00126
2.32741	0.00126
2.32793	0.00126
2.32845	0.00126
2.32898	0.00126
2.3295	0.00126
2.33002	0.00126
2.33055	0.00126
2.33107	0.00126
2.33159	0.00127
2.33212	0.00127
2.33264	0.00126
2.33317	0.00126
2.33369	0.00125
2.33422	0.00125
2.33474	0.00126
2.33527	0.00126
2.3358	0.00126
2.33632	0.00126
2.33685	0.00126
2.33737	0.00125
2.3379	0.00125
2.33843	0.00125
2.33896	0.00125
2.33948	0.00125
2.34001	0.00125
2.34054	0.00126
2.34107	0.00126
2.3416	0.00126
2.34213	0.00126
2.34265	0.00125
2.34318	0.00125
2.34371	0.00124
2.34424	0.00125
2.34477	0.00126
2.3453	0.00126
2.34583	0.00126
2.34636	0.00125
2.3469	0.00125
2.34743	0.00125
2.34796	0.00125
2.34849	0.00125
2.34902	0.00125
2.34955	0.00125
2.35009	0.00124
2.35062	0.00124
2.35115	0.00125
2.35169	0.00126
2.35222	0.00126
2.35275	0.00126
2.35329	0.00126
2.35382	0.00125
2.35435	0.00125
2.35489	0.00125
2.35542	0.00125
2.35596	0.00125
2.35649	0.00125
2.35703	0.00125
2.35757	0.00125
2.3581	0.00125
2.35864	0.00124
2.35917	0.00124
2.35971	0.00124
2.36025	0.00124
2.36079	0.00124
2.36132	0.00124
2.36186	0.00125
2.3624	0.00126
2.36294	0.00126
2.36348	0.00125
2.36401	0.00124
2.36455	0.00124
2.36509	0.00124
2.36563	0.00124
2.36617	0.00125
2.36671	0.00125
2.36725	0.00125
2.36779	0.00125
2.36833	0.00125
2.36887	0.00125
2.36942	0.00125
2.36996	0.00125
2.3705	0.00125
2.37104	0.00124
2.37158	0.00124
2.37213	0.00124
2.37267	0.00124
2.37321	0.00124
2.37375	0.00125
2.3743	0.00126
2.37484	0.00126
2.37539	0.00125
2.37593	0.00125
2.37647	0.00125
2.37702	0.00125
2.37756	0.00125
2.37811	0.00125
2.37865	0.00124
2.3792	0.00124
2.37975	0.00124
2.38029	0.00125
2.38084	0.00125
2.38139	0.00124
2.38193	0.00124
2.38248	0.00124
2.38303	0.00124
2.38357	0.00124
2.38412	0.00124
2.38467	0.00124
2.38522	0.00124
2.38577	0.00124
2.38632	0.00125
2.38687	0.00125
2.38742	0.00124
2.38797	0.00124
2.38852	0.00125
2.38907	0.00125
2.38962	0.00125
2.39017	0.00124
2.39072	0.00124
2.39127	0.00124
2.39182	0.00124
2.39237	0.00124
2.39292	0.00124
2.39348	0.00125
2.39403	0.00125
2.39458	0.00125
2.39513	0.00125
2.39569	0.00124
2.39624	0.00124
2.3968	0.00124
2.39735	0.00124
2.3979	0.00124
2.39846	0.00124
2.39901	0.00124
2.39957	0.00124
2.40012	0.00124
2.40068	0.00124
2.40123	0.00124
2.40179	0.00124
2.40235	0.00124
2.4029	0.00124
2.40346	0.00125
2.40402	0.00125
2.40458	0.00125
2.40513	0.00124
2.40569	0.00124
2.40625	0.00124
2.40681	0.00124
2.40737	0.00124
2.40793	0.00124
2.40848	0.00124
2.40904	0.00124
2.4096	0.00124
2.41016	0.00124
2.41072	0.00125
2.41128	0.00126
2.41184	0.00126
2.41241	0.00125
2.41297	0.00124
2.41353	0.00124
2.41409	0.00124
2.41465	0.00124
2.41522	0.00124
2.41578	0.00124
2.41634	0.00124
2.4169	0.00124
2.41747	0.00124
2.41803	0.00124
2.41859	0.00125
2.41916	0.00125
2.41972	0.00125
2.42029	0.00125
2.42085	0.00125
2.42142	0.00125
2.42198	0.00125
2.42255	0.00125
2.42312	0.00125
2.42368	0.00125
2.42425	0.00125
2.42481	0.00125
2.42538	0.00124
2.42595	0.00124
2.42652	0.00125
2.42708	0.00125
2.42765	0.00125
2.42822	0.00125
2.42879	0.00125
2.42936	0.00124
2.42993	0.00125
2.4305	0.00125
2.43107	0.00126
2.43164	0.00125
2.43221	0.00125
2.43278	0.00125
2.43335	0.00125
2.43392	0.00125
2.43449	0.00125
2.43506	0.00125
2.43563	0.00125
2.43621	0.00125
2.43678	0.00125
2.43735	0.00125
2.43792	0.00125
2.4385	0.00125
2.43907	0.00125
2.43965	0.00125
2.44022	0.00125
2.44079	0.00125
2.44137	0.00125
2.44194	0.00125
2.44252	0.00125
2.44309	0.00125
2.44367	0.00125
2.44425	0.00125
2.44482	0.00125
2.4454	0.00125
2.44597	0.00124
2.44655	0.00124
2.44713	0.00125
2.44771	0.00125
2.44828	0.00125
2.44886	0.00125
2.44944	0.00125
2.45002	0.00125
2.4506	0.00125
2.45118	0.00125
2.45176	0.00125
2.45234	0.00125
2.45292	0.00124
2.4535	0.00124
2.45408	0.00125
2.45466	0.00125
2.45524	0.00124
2.45582	0.00124
2.4564	0.00124
2.45698	0.00125
2.45757	0.00125
2.45815	0.00126
2.45873	0.00126
2.45932	0.00125
2.4599	0.00125
2.46048	0.00125
2.46107	0.00125
2.46165	0.00125
2.46223	0.00126
2.46282	0.00127
2.4634	0.00126
2.46399	0.00126
2.46458	0.00125
2.46516	0.00126
2.46575	0.00126
2.46633	0.00125
2.46692	0.00125
2.46751	0.00125
2.46809	0.00125
2.46868	0.00125
2.46927	0.00125
2.46986	0.00124
2.47045	0.00123
2.47103	0.00123
2.47162	0.00124
2.47221	0.00125
2.4728	0.00125
2.47339	0.00126
2.47398	0.00126
2.47457	0.00126
2.47516	0.00125
2.47575	0.00125
2.47635	0.00125
2.47694	0.00126
2.47753	0.00126
2.47812	0.00126
2.47871	0.00127
2.47931	0.00126
2.4799	0.00125
2.48049	0.00125
2.48108	0.00126
2.48168	0.00126
2.48227	0.00126
2.48287	0.00125
2.48346	0.00125
2.48406	0.00126
2.48465	0.00126
2.48525	0.00127
2.48584	0.00127
2.48644	0.00126
2.48703	0.00126
2.48763	0.00125
2.48823	0.00125
2.48882	0.00126
2.48942	0.00126
2.49002	0.00126
2.49062	0.00126
2.49122	0.00126
2.49182	0.00127
2.49241	0.00126
2.49301	0.00126
2.49361	0.00126
2.49421	0.00125
2.49481	0.00126
2.49541	0.00126
2.49601	0.00126
2.49661	0.00126
2.49721	0.00126
2.49782	0.00126
2.49842	0.00126
2.49902	0.00126
2.49962	0.00125
2.50023	0.00125
2.50083	0.00125
2.50143	0.00125
2.50203	0.00126
2.50264	0.00126
2.50324	0.00126
2.50385	0.00126
2.50445	0.00126
2.50506	0.00126
2.50566	0.00126
2.50627	0.00126
2.50687	0.00126
2.50748	0.00126
2.50809	0.00126
2.50869	0.00126
2.5093	0.00126
2.50991	0.00126
2.51051	0.00126
2.51112	0.00126
2.51173	0.00125
2.51234	0.00125
2.51295	0.00126
2.51356	0.00126
2.51417	0.00126
2.51477	0.00126
2.51539	0.00126
2.516	0.00127
2.51661	0.00127
2.51722	0.00127
2.51783	0.00127
2.51844	0.00126
2.51905	0.00126
2.51966	0.00126
2.52028	0.00126
2.52089	0.00126
2.5215	0.00126
2.52211	0.00126
2.52273	0.00126
2.52334	0.00127
2.52396	0.00127
2.52457	0.00126
2.52518	0.00126
2.5258	0.00126
2.52641	0.00126
2.52703	0.00126
2.52765	0.00126
2.52826	0.00126
2.52888	0.00126
2.5295	0.00126
2.53011	0.00126
2.53073	0.00127
2.53135	0.00126
2.53197	0.00125
2.53258	0.00126
2.5332	0.00127
2.53382	0.00127
2.53444	0.00126
2.53506	0.00126
2.53568	0.00127
2.5363	0.00127
2.53692	0.00127
2.53754	0.00127
2.53816	0.00127
2.53878	0.00127
2.53941	0.00127
2.54003	0.00127
2.54065	0.00127
2.54127	0.00127
2.5419	0.00127
2.54252	0.00127
2.54314	0.00127
2.54377	0.00127
2.54439	0.00127
2.54501	0.00126
2.54564	0.00126
2.54626	0.00126
2.54689	0.00126
2.54751	0.00127
2.54814	0.00127
2.54877	0.00127
2.54939	0.00127
2.55002	0.00127
2.55065	0.00127
2.55127	0.00127
2.5519	0.00127
2.55253	0.00127
2.55316	0.00127
2.55379	0.00126
2.55442	0.00126
2.55505	0.00127
2.55568	0.00128
2.55631	0.00128
2.55694	0.00127
2.55757	0.00127
2.5582	0.00126
2.55883	0.00126
2.55946	0.00126
2.56009	0.00127
2.56072	0.00127
2.56136	0.00127
2.56199	0.00127
2.56262	0.00127
2.56326	0.00127
2.56389	0.00127
2.56452	0.00128
2.56516	0.00128
2.56579	0.00127
2.56643	0.00127
2.56706	0.00127
2.5677	0.00126
2.56833	0.00127
2.56897	0.00127
2.56961	0.00127
2.57024	0.00127
2.57088	0.00127
2.57152	0.00126
2.57216	0.00125
2.57279	0.00125
2.57343	0.00126
2.57407	0.00126
2.57471	0.00126
2.57535	0.00126
2.57599	0.00126
2.57663	0.00127
2.57727	0.00126
2.57791	0.00126
2.57855	0.00126
2.57919	0.00126
2.57983	0.00126
2.58048	0.00126
2.58112	0.00126
2.58176	0.00126
2.5824	0.00126
2.58305	0.00127
2.58369	0.00127
2.58433	0.00127
2.58498	0.00126
2.58562	0.00126
2.58627	0.00126
2.58691	0.00126
2.58756	0.00126
2.5882	0.00126
2.58885	0.00126
2.5895	0.00126
2.59014	0.00126
2.59079	0.00126
2.59144	0.00126
2.59209	0.00126
2.59273	0.00126
2.59338	0.00126
2.59403	0.00127
2.59468	0.00127
2.59533	0.00127
2.59598	0.00127
2.59663	0.00127
2.59728	0.00127
2.59793	0.00127
2.59858	0.00126
2.59923	0.00126
2.59988	0.00126
2.60053	0.00126
2.60119	0.00126
2.60184	0.00125
2.60249	0.00125
2.60315	0.00125
2.6038	0.00126
2.60445	0.00126
2.60511	0.00126
2.60576	0.00126
2.60642	0.00127
2.60707	0.00127
2.60773	0.00127
2.60838	0.00127
2.60904	0.00126
2.6097	0.00126
2.61035	0.00126
2.61101	0.00125
2.61167	0.00125
2.61233	0.00125
2.61298	0.00125
2.61364	0.00125
2.6143	0.00125
2.61496	0.00125
2.61562	0.00126
2.61628	0.00126
2.61694	0.00126
2.6176	0.00126
2.61826	0.00126
2.61892	0.00125
2.61958	0.00125
2.62025	0.00125
2.62091	0.00125
2.62157	0.00126
2.62223	0.00126
2.6229	0.00126
2.62356	0.00126
2.62422	0.00125
2.62489	0.00126
2.62555	0.00126
2.62622	0.00126
2.62688	0.00126
2.62755	0.00126
2.62821	0.00126
2.62888	0.00125
2.62955	0.00125
2.63021	0.00124
2.63088	0.00124
2.63155	0.00124
2.63222	0.00124
2.63288	0.00125
2.63355	0.00125
2.63422	0.00125
2.63489	0.00125
2.63556	0.00125
2.63623	0.00125
2.6369	0.00124
2.63757	0.00124
2.63824	0.00125
2.63891	0.00125
2.63959	0.00125
2.64026	0.00125
2.64093	0.00125
2.6416	0.00125
2.64228	0.00125
2.64295	0.00125
2.64362	0.00125
2.6443	0.00125
2.64497	0.00125
2.64565	0.00125
2.64632	0.00125
2.647	0.00125
2.64767	0.00125
2.64835	0.00125
2.64902	0.00125
2.6497	0.00125
2.65038	0.00125
2.65106	0.00124
2.65173	0.00124
2.65241	0.00124
2.65309	0.00123
2.65377	0.00123
2.65445	0.00124
2.65513	0.00124
2.65581	0.00124
2.65649	0.00124
2.65717	0.00124
2.65785	0.00125
2.65853	0.00125
2.65921	0.00124
2.6599	0.00124
2.66058	0.00124
2.66126	0.00124
2.66194	0.00124
2.66263	0.00124
2.66331	0.00124
2.66399	0.00124
2.66468	0.00125
2.66536	0.00125
2.66605	0.00124
2.66673	0.00124
2.66742	0.00124
2.66811	0.00124
2.66879	0.00124
2.66948	0.00124
2.67017	0.00124
2.67086	0.00124
2.67154	0.00124
2.67223	0.00124
2.67292	0.00125
2.67361	0.00125
2.6743	0.00124
2.67499	0.00124
2.67568	0.00124
2.67637	0.00124
2.67706	0.00124
2.67775	0.00124
2.67844	0.00124
2.67914	0.00124
2.67983	0.00124
2.68052	0.00124
2.68121	0.00124
2.68191	0.00124
2.6826	0.00123
2.68329	0.00123
2.68399	0.00124
2.68468	0.00124
2.68538	0.00124
2.68607	0.00124
2.68677	0.00124
2.68747	0.00124
2.68816	0.00124
2.68886	0.00124
2.68956	0.00124
2.69025	0.00124
2.69095	0.00124
2.69165	0.00124
2.69235	0.00123
2.69305	0.00123
2.69375	0.00123
2.69445	0.00123
2.69515	0.00123
2.69585	0.00124
2.69655	0.00123
2.69725	0.00123
2.69795	0.00123
2.69866	0.00123
2.69936	0.00124
2.70006	0.00124
2.70076	0.00124
2.70147	0.00124
2.70217	0.00123
2.70288	0.00123
2.70358	0.00123
2.70429	0.00123
2.70499	0.00123
2.7057	0.00123
2.7064	0.00123
2.70711	0.00123
2.70782	0.00123
2.70852	0.00123
2.70923	0.00123
2.70994	0.00123
2.71065	0.00123
2.71135	0.00123
2.71206	0.00123
2.71277	0.00123
2.71348	0.00123
2.71419	0.00123
2.7149	0.00123
2.71562	0.00123
2.71633	0.00123
2.71704	0.00123
2.71775	0.00123
2.71846	0.00123
2.71918	0.00123
2.71989	0.00123
2.7206	0.00123
2.72132	0.00123
2.72203	0.00123
2.72274	0.00122
2.72346	0.00123
2.72417	0.00123
2.72489	0.00122
2.72561	0.00122
2.72632	0.00122
2.72704	0.00122
2.72776	0.00122
2.72847	0.00122
2.72919	0.00122
2.72991	0.00123
2.73063	0.00123
2.73135	0.00123
2.73207	0.00123
2.73279	0.00123
2.73351	0.00123
2.73423	0.00123
2.73495	0.00123
2.73567	0.00123
2.73639	0.00123
2.73712	0.00122
2.73784	0.00122
2.73856	0.00123
2.73928	0.00123
2.74001	0.00123
2.74073	0.00122
2.74146	0.00121
2.74218	0.0012
2.74291	0.0012
2.74363	0.00121
2.74436	0.00122
2.74509	0.00123
2.74581	0.00123
2.74654	0.00123
2.74727	0.00123
2.74799	0.00122
2.74872	0.00122
2.74945	0.00122
2.75018	0.00122
2.75091	0.00122
2.75164	0.00122
2.75237	0.00122
2.7531	0.00123
2.75383	0.00123
2.75456	0.00123
2.7553	0.00122
2.75603	0.0012
2.75676	0.0012
2.75749	0.00121
2.75823	0.00122
2.75896	0.00122
2.75969	0.00122
2.76043	0.00122
2.76116	0.00122
2.7619	0.00122
2.76264	0.00121
2.76337	0.00122
2.76411	0.00122
2.76485	0.00122
2.76558	0.00122
2.76632	0.00122
2.76706	0.00122
2.7678	0.00122
2.76854	0.00122
2.76927	0.00122
2.77001	0.00122
2.77075	0.00122
2.77149	0.00122
2.77224	0.00122
2.77298	0.00122
2.77372	0.00122
2.77446	0.00122
2.7752	0.00122
2.77595	0.00122
2.77669	0.00122
2.77743	0.00122
2.77818	0.00122
2.77892	0.00122
2.77967	0.00122
2.78041	0.00122
2.78116	0.00122
2.7819	0.00122
2.78265	0.00122
2.7834	0.00122
2.78414	0.00122
2.78489	0.00122
2.78564	0.00122
2.78639	0.00122
2.78714	0.00122
2.78789	0.00122
2.78863	0.00122
2.78938	0.00122
2.79013	0.00122
2.79089	0.00122
2.79164	0.00121
2.79239	0.00121
2.79314	0.00121
2.79389	0.00121
2.79465	0.00121
2.7954	0.00121
2.79615	0.00122
2.79691	0.00122
2.79766	0.00122
2.79842	0.00122
2.79917	0.00122
2.79993	0.00121
2.80068	0.00121
2.80144	0.00121
2.8022	0.00121
2.80295	0.00121
2.80371	0.00121
2.80447	0.00121
2.80523	0.00121
2.80599	0.00121
2.80675	0.00121
2.80751	0.00121
2.80827	0.00121
2.80903	0.00121
2.80979	0.00121
2.81055	0.00121
2.81131	0.00121
2.81207	0.00121
2.81284	0.00121
2.8136	0.00121
2.81436	0.00121
2.81513	0.00121
2.81589	0.00121
2.81666	0.00121
2.81742	0.00121
2.81819	0.00121
2.81895	0.00121
2.81972	0.00121
2.82049	0.00121
2.82125	0.00121
2.82202	0.00121
2.82279	0.00122
2.82356	0.00121
2.82433	0.00121
2.8251	0.00121
2.82587	0.00121
2.82664	0.00121
2.82741	0.00121
2.82818	0.00121
2.82895	0.00121
2.82972	0.00121
2.83049	0.00121
2.83127	0.00121
2.83204	0.00121
2.83281	0.00121
2.83359	0.0012
2.83436	0.0012
2.83514	0.0012
2.83591	0.0012
2.83669	0.0012
2.83746	0.0012
2.83824	0.0012
2.83902	0.0012
2.8398	0.0012
2.84057	0.00121
2.84135	0.00121
2.84213	0.0012
2.84291	0.0012
2.84369	0.0012
2.84447	0.0012
2.84525	0.00121
2.84603	0.00121
2.84681	0.0012
2.84759	0.0012
2.84837	0.0012
2.84916	0.0012
2.84994	0.0012
2.85072	0.0012
2.85151	0.0012
2.85229	0.0012
2.85308	0.0012
2.85386	0.0012
2.85465	0.0012
2.85543	0.0012
2.85622	0.0012
2.85701	0.0012
2.85779	0.0012
2.85858	0.0012
2.85937	0.00119
2.86016	0.00119
2.86095	0.0012
2.86174	0.00119
2.86253	0.00119
2.86332	0.00119
2.86411	0.00119
2.8649	0.00119
2.86569	0.00119
2.86648	0.00119
2.86727	0.00119
2.86807	0.00119
2.86886	0.00119
2.86965	0.00119
2.87045	0.00119
2.87124	0.00119
2.87204	0.00119
2.87283	0.00119
2.87363	0.00118
2.87443	0.00119
2.87522	0.00119
2.87602	0.00119
2.87682	0.00119
2.87762	0.00119
2.87842	0.00119
2.87921	0.00119
2.88002	0.00119
2.88081	0.00118
2.88162	0.00118
2.88242	0.00118
2.88322	0.00118
2.88402	0.00118
2.88482	0.00118
2.88562	0.00118
2.88643	0.00118
2.88723	0.00118
2.88803	0.00118
2.88884	0.00117
2.88964	0.00117
2.89045	0.00118
2.89126	0.00118
2.89206	0.00118
2.89287	0.00117
2.89368	0.00116
2.89448	0.00116
2.89529	0.00117
2.8961	0.00117
2.89691	0.00117
2.89772	0.00117
2.89853	0.00117
2.89934	0.00117
2.90015	0.00117
2.90096	0.00117
2.90177	0.00117
2.90258	0.00116
2.9034	0.00116
2.90421	0.00117
2.90502	0.00117
2.90584	0.00117
2.90665	0.00116
2.90747	0.00116
2.90828	0.00116
2.9091	0.00116
2.90991	0.00116
2.91073	0.00117
2.91155	0.00117
2.91237	0.00116
2.91318	0.00116
2.914	0.00115
2.91482	0.00115
2.91564	0.00115
2.91646	0.00115
2.91728	0.00115
2.9181	0.00115
2.91892	0.00115
2.91974	0.00115
2.92057	0.00115
2.92139	0.00115
2.92221	0.00115
2.92304	0.00114
2.92386	0.00114
2.92468	0.00114
2.92551	0.00114
2.92634	0.00114
2.92716	0.00114
2.92799	0.00114
2.92882	0.00114
2.92964	0.00114
2.93047	0.00114
2.9313	0.00113
2.93213	0.00113
2.93296	0.00113
2.93379	0.00113
2.93462	0.00113
2.93545	0.00113
2.93628	0.00113
2.93711	0.00113
2.93794	0.00112
2.93877	0.00112
2.93961	0.00112
2.94044	0.00112
2.94127	0.00112
2.94211	0.00112
2.94294	0.00112
2.94378	0.00112
2.94461	0.00111
2.94545	0.00111
2.94629	0.00111
2.94713	0.00111
2.94796	0.00111
2.9488	0.00111
2.94964	0.00111
2.95048	0.00111
2.95132	0.00111
2.95216	0.00111
2.953	0.00111
2.95384	0.0011
2.95468	0.0011
2.95552	0.0011
2.95637	0.0011
2.95721	0.0011
2.95805	0.0011
2.9589	0.0011
2.95974	0.0011
2.96059	0.0011
2.96143	0.00109
2.96228	0.0011
2.96312	0.0011
2.96397	0.0011
2.96482	0.0011
2.96567	0.0011
2.96651	0.00109
2.96736	0.00109
2.96821	0.00108
2.96906	0.00108
2.96991	0.00108
2.97076	0.00108
2.97161	0.00108
2.97247	0.00108
2.97332	0.00108
2.97417	0.00108
2.97502	0.00107
2.97588	0.00107
2.97673	0.00107
2.97759	0.00107
2.97844	0.00106
2.9793	0.00106
2.98015	0.00106
2.98101	0.00106
2.98187	0.00106
2.98272	0.00105
2.98358	0.00105
2.98444	0.00105
2.9853	0.00105
2.98616	0.00105
2.98702	0.00105
2.98788	0.00105
2.98874	0.00104
2.9896	0.00104
2.99047	0.00104
2.99133	0.00104
2.99219	0.00104
2.99305	0.00104
2.99392	0.00103
2.99478	0.00103
2.99565	0.00103
2.99651	0.00103
2.99738	0.00102
2.99825	0.00102
2.99911	0.00102
2.99998	0.00102
3.00085	0.00102
3.00172	0.00102
3.00259	0.00101
3.00346	0.00101
3.00433	0.00101
3.0052	0.00101
3.00607	0.00101
3.00694	0.001
3.00781	9.98781E-4
3.00868	9.95017E-4
3.00956	9.92214E-4
3.01043	9.90362E-4
3.0113	9.89457E-4
3.01218	9.88635E-4
3.01305	9.87067E-4
3.01393	9.85171E-4
3.01481	9.82563E-4
3.01568	9.787E-4
3.01656	9.74744E-4
3.01744	9.71893E-4
3.01832	9.70354E-4
3.01919	9.69332E-4
3.02007	9.67825E-4
3.02095	9.65562E-4
3.02183	9.64034E-4
3.02271	9.64072E-4
3.0236	9.64083E-4
3.02448	9.63177E-4
3.02536	9.60765E-4
3.02624	9.56135E-4
3.02713	9.51634E-4
3.02801	9.49916E-4
3.02889	9.4921E-4
3.02978	9.45907E-4
3.03066	9.4106E-4
3.03155	9.38914E-4
3.03244	9.39636E-4
3.03332	9.40147E-4
3.03421	9.38897E-4
3.0351	9.35682E-4
3.03599	9.31539E-4
3.03688	9.27856E-4
3.03777	9.24782E-4
3.03866	9.22854E-4
3.03955	9.22866E-4
3.04044	9.23188E-4
3.04133	9.21883E-4
3.04222	9.19575E-4
3.04311	9.17735E-4
3.04401	9.18622E-4
3.0449	9.21803E-4
3.0458	9.20397E-4
3.04669	9.12249E-4
3.04759	9.05337E-4
3.04848	9.03068E-4
3.04938	9.01993E-4
3.05027	9.01096E-4
3.05117	9.00654E-4
3.05207	8.99203E-4
3.05297	8.96422E-4
3.05387	8.93774E-4
3.05477	8.91733E-4
3.05567	8.89822E-4
3.05657	8.87665E-4
3.05747	8.85588E-4
3.05837	8.8416E-4
3.05927	8.83478E-4
3.06017	8.83069E-4
3.06108	8.81472E-4
3.06198	8.78495E-4
3.06289	8.75478E-4
3.06379	8.73132E-4
3.0647	8.72433E-4
3.0656	8.71907E-4
3.06651	8.68935E-4
3.06742	8.65533E-4
3.06832	8.6411E-4
3.06923	8.63734E-4
3.07014	8.62945E-4
3.07105	8.6046E-4
3.07196	8.57475E-4
3.07287	8.56642E-4
3.07378	8.56607E-4
3.07469	8.54331E-4
3.0756	8.51052E-4
3.07652	8.4953E-4
3.07743	8.4849E-4
3.07834	8.46471E-4
3.07926	8.44647E-4
3.08017	8.43231E-4
3.08108	8.41888E-4
3.082	8.41093E-4
3.08292	8.39895E-4
3.08383	8.36901E-4
3.08475	8.33514E-4
3.08567	8.31761E-4
3.08659	8.30575E-4
3.08751	8.28686E-4
3.08843	8.27386E-4
3.08935	8.26907E-4
3.09027	8.25376E-4
3.09119	8.22332E-4
3.09211	8.19738E-4
3.09303	8.18357E-4
3.09395	8.17141E-4
3.09488	8.16064E-4
3.0958	8.15382E-4
3.09672	8.14377E-4
3.09765	8.12611E-4
3.09858	8.10227E-4
3.0995	8.08169E-4
3.10043	8.07217E-4
3.10136	8.06174E-4
3.10228	8.03759E-4
3.10321	8.01579E-4
3.10414	8.01727E-4
3.10507	8.02926E-4
3.106	8.02367E-4
3.10693	7.99802E-4
3.10786	7.97652E-4
3.10879	7.97119E-4
3.10973	7.9654E-4
3.11066	7.94601E-4
3.11159	7.91739E-4
3.11252	7.8866E-4
3.11346	7.86354E-4
3.11439	7.86028E-4
3.11533	7.87096E-4
3.11627	7.86658E-4
3.1172	7.84155E-4
3.11814	7.81926E-4
3.11908	7.80707E-4
3.12002	7.78999E-4
3.12095	7.76336E-4
3.12189	7.74258E-4
3.12283	7.73714E-4
3.12377	7.74124E-4
3.12472	7.74202E-4
3.12566	7.74858E-4
3.1266	7.77585E-4
3.12754	7.76772E-4
3.12849	7.67671E-4
3.12943	7.58763E-4
3.13038	7.56633E-4
3.13132	7.56927E-4
3.13227	7.56784E-4
3.13321	7.55834E-4
3.13416	7.53231E-4
3.13511	7.5135E-4
3.13605	7.51773E-4
3.137	7.52022E-4
3.13795	7.51164E-4
3.1389	7.50566E-4
3.13985	7.49145E-4
3.1408	7.45931E-4
3.14176	7.43266E-4
3.14271	7.42931E-4
3.14366	7.43932E-4
3.14461	7.43726E-4
3.14557	7.41217E-4
3.14652	7.38499E-4
3.14748	7.3733E-4
3.14843	7.37147E-4
3.14939	7.36514E-4
3.15034	7.35197E-4
3.1513	7.33711E-4
3.15226	7.31417E-4
3.15322	7.28596E-4
3.15418	7.26992E-4
3.15514	7.26725E-4
3.1561	7.26734E-4
3.15706	7.26553E-4
3.15802	7.26201E-4
3.15898	7.25384E-4
3.15994	7.24165E-4
3.16091	7.22821E-4
3.16187	7.20866E-4
3.16283	7.18326E-4
3.1638	7.16043E-4
3.16476	7.14751E-4
3.16573	7.14277E-4
3.1667	7.13448E-4
3.16766	7.12263E-4
3.16863	7.11832E-4
3.1696	7.11506E-4
3.17057	7.09655E-4
3.17154	7.06766E-4
3.17251	7.03719E-4
3.17348	7.01115E-4
3.17445	7.00295E-4
3.17542	7.00675E-4
3.1764	7E-4
3.17737	6.98479E-4
3.17834	6.9733E-4
3.17932	6.96142E-4
3.18029	6.94873E-4
3.18127	6.94078E-4
3.18224	6.93098E-4
3.18322	6.91771E-4
3.1842	6.90813E-4
3.18518	6.89898E-4
3.18615	6.88922E-4
3.18713	6.88193E-4
3.18811	6.86952E-4
3.18909	6.85142E-4
3.19007	6.84068E-4
3.19106	6.83443E-4
3.19204	6.81822E-4
3.19302	6.8004E-4
3.194	6.78687E-4
3.19499	6.76466E-4
3.19597	6.7439E-4
3.19696	6.73649E-4
3.19794	6.72687E-4
3.19893	6.71765E-4
3.19992	6.72114E-4
3.20091	6.71978E-4
3.20189	6.70434E-4
3.20288	6.69253E-4
3.20387	6.69097E-4
3.20486	6.69003E-4
3.20585	6.68325E-4
3.20684	6.67086E-4
3.20784	6.65387E-4
3.20883	6.63751E-4
3.20982	6.63176E-4
3.21082	6.63521E-4
3.21181	6.63167E-4
3.2128	6.62033E-4
3.2138	6.60521E-4
3.2148	6.56881E-4
3.21579	6.52105E-4
3.21679	6.49205E-4
3.21779	6.45368E-4
3.21879	6.3904E-4
3.21979	6.38242E-4
3.22079	6.45477E-4
3.22179	6.5142E-4
3.22279	6.51879E-4
3.22379	6.50637E-4
3.22479	6.49041E-4
3.2258	6.46777E-4
3.2268	6.4432E-4
3.2278	6.41869E-4
3.22881	6.40266E-4
3.22981	6.40132E-4
3.23082	6.40351E-4
3.23183	6.39865E-4
3.23283	6.39183E-4
3.23384	6.38913E-4
3.23485	6.3831E-4
3.23586	6.3673E-4
3.23687	6.35094E-4
3.23788	6.33966E-4
3.23889	6.33132E-4
3.2399	6.31792E-4
3.24092	6.29639E-4
3.24193	6.28168E-4
3.24294	6.28228E-4
3.24396	6.28619E-4
3.24497	6.28466E-4
3.24599	6.275E-4
3.24701	6.25992E-4
3.24802	6.24989E-4
3.24904	6.24914E-4
3.25006	6.24626E-4
3.25108	6.23044E-4
3.2521	6.21195E-4
3.25312	6.19983E-4
3.25414	6.18927E-4
3.25516	6.18294E-4
3.25618	6.18143E-4
3.2572	6.17376E-4
3.25823	6.15822E-4
3.25925	6.14635E-4
3.26027	6.14522E-4
3.2613	6.14159E-4
3.26233	6.12629E-4
3.26335	6.10833E-4
3.26438	6.09479E-4
3.26541	6.08622E-4
3.26644	6.07746E-4
3.26746	6.06205E-4
3.26849	6.04741E-4
3.26953	6.04153E-4
3.27056	6.03983E-4
3.27159	6.03774E-4
3.27262	6.03148E-4
3.27365	6.01253E-4
3.27469	5.99E-4
3.27572	5.98377E-4
3.27676	5.99038E-4
3.27779	5.99474E-4
3.27883	5.99682E-4
3.27986	5.99398E-4
3.2809	5.97885E-4
3.28194	5.95865E-4
3.28298	5.94959E-4
3.28402	5.95072E-4
3.28506	5.94299E-4
3.2861	5.92077E-4
3.28714	5.89559E-4
3.28818	5.87365E-4
3.28923	5.86035E-4
3.29027	5.86053E-4
3.29132	5.86875E-4
3.29236	5.87586E-4
3.29341	5.87304E-4
3.29445	5.85842E-4
3.2955	5.84214E-4
3.29655	5.83279E-4
3.29759	5.82587E-4
3.29864	5.81466E-4
3.29969	5.80216E-4
3.30074	5.79451E-4
3.30179	5.79077E-4
3.30284	5.7861E-4
3.3039	5.76861E-4
3.30495	5.73817E-4
3.306	5.73425E-4
3.30706	5.77394E-4
3.30811	5.79906E-4
3.30917	5.77707E-4
3.31022	5.74584E-4
3.31128	5.73303E-4
3.31234	5.73189E-4
3.3134	5.72946E-4
3.31446	5.72073E-4
3.31552	5.71016E-4
3.31658	5.70274E-4
3.31764	5.69421E-4
3.3187	5.67978E-4
3.31976	5.66187E-4
3.32082	5.646E-4
3.32189	5.63659E-4
3.32295	5.63711E-4
3.32402	5.64094E-4
3.32508	5.63852E-4
3.32615	5.63131E-4
3.32722	5.62668E-4
3.32828	5.62004E-4
3.32935	5.60458E-4
3.33042	5.58676E-4
3.33149	5.57427E-4
3.33256	5.56802E-4
3.33363	5.56523E-4
3.33471	5.55569E-4
3.33578	5.54395E-4
3.33685	5.54209E-4
3.33793	5.54058E-4
3.339	5.52959E-4
3.34007	5.51424E-4
3.34115	5.49963E-4
3.34223	5.49049E-4
3.34331	5.49171E-4
3.34438	5.50112E-4
3.34546	5.50782E-4
3.34654	5.50049E-4
3.34762	5.48752E-4
3.3487	5.48111E-4
3.34978	5.47433E-4
3.35087	5.46502E-4
3.35195	5.45735E-4
3.35303	5.45076E-4
3.35412	5.44745E-4
3.3552	5.44631E-4
3.35629	5.44118E-4
3.35738	5.43333E-4
3.35846	5.42785E-4
3.35955	5.42652E-4
3.36064	5.43028E-4
3.36173	5.43222E-4
3.36282	5.42202E-4
3.36391	5.40585E-4
3.365	5.39188E-4
3.36609	5.37449E-4
3.36719	5.35946E-4
3.36828	5.35922E-4
3.36937	5.36799E-4
3.37047	5.3719E-4
3.37156	5.36733E-4
3.37266	5.35843E-4
3.37376	5.34828E-4
3.37486	5.34084E-4
3.37595	5.33501E-4
3.37705	5.32847E-4
3.37815	5.32751E-4
3.37926	5.32906E-4
3.38036	5.3227E-4
3.38146	5.3149E-4
3.38256	5.31448E-4
3.38367	5.31495E-4
3.38477	5.30824E-4
3.38587	5.29739E-4
3.38698	5.29014E-4
3.38809	5.28918E-4
3.38919	5.28336E-4
3.3903	5.26572E-4
3.39141	5.25132E-4
3.39252	5.25089E-4
3.39363	5.24903E-4
3.39474	5.23983E-4
3.39585	5.23547E-4
3.39696	5.2345E-4
3.39808	5.22656E-4
3.39919	5.21594E-4
3.40031	5.21247E-4
3.40142	5.21186E-4
3.40254	5.20875E-4
3.40365	5.21725E-4
3.40477	5.23005E-4
3.40589	5.22157E-4
3.40701	5.20416E-4
3.40813	5.19944E-4
3.40925	5.20043E-4
3.41037	5.19785E-4
3.41149	5.1926E-4
3.41261	5.18235E-4
3.41374	5.16676E-4
3.41486	5.15244E-4
3.41599	5.1431E-4
3.41711	5.13236E-4
3.41824	5.11789E-4
3.41936	5.11106E-4
3.42049	5.12179E-4
3.42162	5.1386E-4
3.42275	5.14189E-4
3.42388	5.12847E-4
3.42501	5.1115E-4
3.42614	5.10077E-4
3.42727	5.09181E-4
3.42841	5.08446E-4
3.42954	5.08295E-4
3.43068	5.08268E-4
3.43181	5.0755E-4
3.43295	5.06656E-4
3.43408	5.06452E-4
3.43522	5.06425E-4
3.43636	5.06132E-4
3.4375	5.06212E-4
3.43864	5.06131E-4
3.43978	5.04406E-4
3.44092	5.018E-4
3.44206	5.00379E-4
3.4432	5.0021E-4
3.44435	5.00235E-4
3.44549	5.00384E-4
3.44664	5.00815E-4
3.44778	5.01158E-4
3.44893	5.0106E-4
3.45008	5.00326E-4
3.45123	4.98923E-4
3.45237	4.97363E-4
3.45352	4.96332E-4
3.45467	4.96058E-4
3.45583	4.96118E-4
3.45698	4.9623E-4
3.45813	4.96096E-4
3.45928	4.95435E-4
3.46044	4.95055E-4
3.46159	4.95537E-4
3.46275	4.9528E-4
3.46391	4.93248E-4
3.46506	4.91148E-4
3.46622	4.90436E-4
3.46738	4.90302E-4
3.46854	4.89905E-4
3.4697	4.89911E-4
3.47086	4.90829E-4
3.47202	4.91608E-4
3.47319	4.91509E-4
3.47435	4.90813E-4
3.47551	4.89696E-4
3.47668	4.88843E-4
3.47784	4.88832E-4
3.47901	4.88733E-4
3.48018	4.88055E-4
3.48135	4.87676E-4
3.48252	4.87314E-4
3.48369	4.85954E-4
3.48486	4.84927E-4
3.48603	4.85388E-4
3.4872	4.85954E-4
3.48837	4.85504E-4
3.48955	4.84757E-4
3.49072	4.84168E-4
3.4919	4.83509E-4
3.49307	4.82937E-4
3.49425	4.82872E-4
3.49543	4.83193E-4
3.49661	4.83443E-4
3.49779	4.82941E-4
3.49897	4.81792E-4
3.50015	4.80802E-4
3.50133	4.80021E-4
3.50251	4.79258E-4
3.50369	4.79054E-4
3.50488	4.7925E-4
3.50606	4.79535E-4
3.50725	4.7954E-4
3.50843	4.78567E-4
3.50962	4.77577E-4
3.51081	4.77355E-4
3.512	4.77273E-4
3.51319	4.77504E-4
3.51438	4.77439E-4
3.51557	4.76118E-4
3.51676	4.74746E-4
3.51796	4.74489E-4
3.51915	4.74667E-4
3.52034	4.74549E-4
3.52154	4.73753E-4
3.52274	4.72573E-4
3.52393	4.72072E-4
3.52513	4.72424E-4
3.52633	4.73073E-4
3.52753	4.73547E-4
3.52873	4.73307E-4
3.52993	4.72824E-4
3.53113	4.72444E-4
3.53233	4.71334E-4
3.53354	4.69685E-4
3.53474	4.6875E-4
3.53595	4.68928E-4
3.53715	4.69557E-4
3.53836	4.69683E-4
3.53957	4.68643E-4
3.54078	4.67013E-4
3.54199	4.65871E-4
3.5432	4.65388E-4
3.54441	4.65322E-4
3.54562	4.65463E-4
3.54683	4.65449E-4
3.54804	4.65435E-4
3.54926	4.65594E-4
3.55047	4.65267E-4
3.55169	4.64888E-4
3.55291	4.65187E-4
3.55412	4.65398E-4
3.55534	4.64689E-4
3.55656	4.63581E-4
3.55778	4.62872E-4
3.559	4.62355E-4
3.56022	4.61872E-4
3.56145	4.61788E-4
3.56267	4.62207E-4
3.56389	4.62643E-4
3.56512	4.62281E-4
3.56635	4.61364E-4
3.56757	4.6102E-4
3.5688	4.60971E-4
3.57003	4.60401E-4
3.57126	4.59554E-4
3.57249	4.58793E-4
3.57372	4.5838E-4
3.57495	4.58763E-4
3.57618	4.60031E-4
3.57742	4.61579E-4
3.57865	4.62191E-4
3.57989	4.61151E-4
3.58112	4.59277E-4
3.58236	4.57597E-4
3.5836	4.56421E-4
3.58484	4.55886E-4
3.58608	4.55836E-4
3.58732	4.55543E-4
3.58856	4.5506E-4
3.5898	4.55201E-4
3.59104	4.55584E-4
3.59229	4.55811E-4
3.59353	4.55968E-4
3.59478	4.55606E-4
3.59602	4.54776E-4
3.59727	4.54085E-4
3.59852	4.53602E-4
3.59977	4.53465E-4
3.60102	4.53951E-4
3.60227	4.54803E-4
3.60352	4.55256E-4
3.60477	4.54789E-4
3.60603	4.54062E-4
3.60728	4.53925E-4
3.60854	4.53493E-4
3.60979	4.52195E-4
3.61105	4.51018E-4
3.61231	4.50327E-4
3.61357	4.49601E-4
3.61482	4.48651E-4
3.61609	4.48773E-4
3.61735	4.50765E-4
3.61861	4.52848E-4
3.61987	4.53492E-4
3.62114	4.53112E-4
3.6224	4.52367E-4
3.62367	4.51413E-4
3.62493	4.50287E-4
3.6262	4.49508E-4
3.62747	4.4944E-4
3.62874	4.49407E-4
3.63001	4.49234E-4
3.63128	4.49721E-4
3.63255	4.50573E-4
3.63382	4.50488E-4
3.6351	4.49482E-4
3.63637	4.48529E-4
3.63765	4.47854E-4
3.63892	4.47335E-4
3.6402	4.47145E-4
3.64148	4.47007E-4
3.64276	4.4654E-4
3.64404	4.46384E-4
3.64532	4.4727E-4
3.6466	4.48104E-4
3.64788	4.47446E-4
3.64917	4.46076E-4
3.65045	4.45296E-4
3.65174	4.44516E-4
3.65302	4.43495E-4
3.65431	4.43495E-4
3.6556	4.44241E-4
3.65689	4.44449E-4
3.65818	4.43826E-4
3.65947	4.42613E-4
3.66076	4.4218E-4
3.66205	4.43289E-4
3.66335	4.44435E-4
3.66464	4.4454E-4
3.66594	4.43881E-4
3.66723	4.43153E-4
3.66853	4.43049E-4
3.66983	4.43709E-4
3.67113	4.44388E-4
3.67243	4.44302E-4
3.67373	4.43433E-4
3.67503	4.42808E-4
3.67633	4.43226E-4
3.67764	4.43957E-4
3.67894	4.44498E-4
3.68025	4.45248E-4
3.68155	4.45389E-4
3.68286	4.4417E-4
3.68417	4.42639E-4
3.68548	4.42013E-4
3.68679	4.4191E-4
3.6881	4.4158E-4
3.68941	4.41111E-4
3.69072	4.41024E-4
3.69204	4.41164E-4
3.69335	4.4099E-4
3.69467	4.40382E-4
3.69598	4.39565E-4
3.6973	4.38765E-4
3.69862	4.38314E-4
3.69994	4.38505E-4
3.70126	4.39722E-4
3.70258	4.41116E-4
3.7039	4.42041E-4
3.70523	4.4281E-4
3.70655	4.41763E-4
3.70788	4.3854E-4
3.7092	4.36801E-4
3.71053	4.37723E-4
3.71186	4.38262E-4
3.71319	4.3727E-4
3.71452	4.36418E-4
3.71585	4.36539E-4
3.71718	4.36992E-4
3.71851	4.37462E-4
3.71985	4.38054E-4
3.72118	4.38682E-4
3.72252	4.38491E-4
3.72385	4.36817E-4
3.72519	4.34919E-4
3.72653	4.34606E-4
3.72787	4.35284E-4
3.72921	4.3497E-4
3.73055	4.33943E-4
3.73189	4.34308E-4
3.73324	4.36277E-4
3.73458	4.38111E-4
3.73593	4.38758E-4
3.73727	4.38531E-4
3.73862	4.38112E-4
3.73997	4.3785E-4
3.74132	4.37361E-4
3.74267	4.3675E-4
3.74402	4.36488E-4
3.74537	4.36296E-4
3.74672	4.36086E-4
3.74808	4.36611E-4
3.74943	4.37679E-4
3.75079	4.38101E-4
3.75215	4.37856E-4
3.7535	4.37524E-4
3.75486	4.36596E-4
3.75622	4.34899E-4
3.75758	4.33483E-4
3.75895	4.33098E-4
3.76031	4.33185E-4
3.76167	4.335E-4
3.76304	4.34759E-4
3.7644	4.36512E-4
3.76577	4.37232E-4
3.76714	4.3725E-4
3.76851	4.37339E-4
3.76988	4.36795E-4
3.77125	4.35445E-4
3.77262	4.34445E-4
3.77399	4.3406E-4
3.77537	4.33745E-4
3.77674	4.33534E-4
3.77812	4.33675E-4
3.7795	4.34254E-4
3.78087	4.3508E-4
3.78225	4.35238E-4
3.78363	4.3436E-4
3.78501	4.33465E-4
3.78639	4.33623E-4
3.78778	4.34432E-4
3.78916	4.34679E-4
3.79055	4.3438E-4
3.79193	4.34557E-4
3.79332	4.34733E-4
3.79471	4.34065E-4
3.7961	4.33344E-4
3.79749	4.3331E-4
3.79888	4.33732E-4
3.80027	4.33979E-4
3.80166	4.33469E-4
3.80306	4.32731E-4
3.80445	4.32678E-4
3.80585	4.33048E-4
3.80724	4.3333E-4
3.80864	4.34071E-4
3.81004	4.35184E-4
3.81144	4.35414E-4
3.81284	4.34974E-4
3.81424	4.3501E-4
3.81565	4.34941E-4
3.81705	4.34111E-4
3.81846	4.33459E-4
3.81986	4.33548E-4
3.82127	4.33796E-4
3.82268	4.33903E-4
3.82409	4.33975E-4
3.8255	4.33816E-4
3.82691	4.33534E-4
3.82833	4.33482E-4
3.82974	4.33342E-4
3.83115	4.33024E-4
3.83257	4.33025E-4
3.83399	4.33433E-4
3.8354	4.33983E-4
3.83682	4.34515E-4
3.83824	4.34499E-4
3.83966	4.33862E-4
3.84109	4.33562E-4
3.84251	4.33847E-4
3.84393	4.33919E-4
3.84536	4.33707E-4
3.84679	4.3378E-4
3.84821	4.34065E-4
3.84964	4.34172E-4
3.85107	4.33801E-4
3.8525	4.33359E-4
3.85393	4.33697E-4
3.85537	4.34374E-4
3.8568	4.3434E-4
3.85823	4.33577E-4
3.85967	4.32761E-4
3.86111	4.32567E-4
3.86254	4.32799E-4
3.86398	4.33049E-4
3.86542	4.33477E-4
3.86687	4.33995E-4
3.86831	4.34121E-4
3.86975	4.33766E-4
3.8712	4.33465E-4
3.87264	4.3352E-4
3.87409	4.33326E-4
3.87553	4.33167E-4
3.87698	4.33525E-4
3.87843	4.3383E-4
3.87988	4.34367E-4
3.88134	4.35405E-4
3.88279	4.3555E-4
3.88424	4.34516E-4
3.8857	4.33535E-4
3.88716	4.33198E-4
3.88861	4.33432E-4
3.89007	4.34041E-4
3.89153	4.34472E-4
3.89299	4.34117E-4
3.89445	4.33046E-4
3.89592	4.30727E-4
3.89738	4.26755E-4
3.89885	4.25386E-4
3.90031	4.29446E-4
3.90178	4.33574E-4
3.90325	4.34006E-4
3.90472	4.33471E-4
3.90619	4.33957E-4
3.90766	4.34802E-4
3.90913	4.35181E-4
3.91061	4.35111E-4
3.91208	4.35114E-4
3.91356	4.35206E-4
3.91504	4.34491E-4
3.91652	4.33632E-4
3.91799	4.3437E-4
3.91948	4.35828E-4
3.92096	4.36623E-4
3.92244	4.37256E-4
3.92392	4.37782E-4
3.92541	4.38056E-4
3.9269	4.38222E-4
3.92838	4.38135E-4
3.92987	4.37634E-4
3.93136	4.36465E-4
3.93285	4.35026E-4
3.93435	4.34669E-4
3.93584	4.35428E-4
3.93733	4.36099E-4
3.93883	4.36643E-4
3.94032	4.37677E-4
3.94182	4.38494E-4
3.94332	4.38588E-4
3.94482	4.38429E-4
3.94632	4.38234E-4
3.94782	4.38166E-4
3.94933	4.38441E-4
3.95083	4.38771E-4
3.95234	4.39138E-4
3.95384	4.39396E-4
3.95535	4.39491E-4
3.95686	4.39949E-4
3.95837	4.40008E-4
3.95988	4.3925E-4
3.9614	4.3871E-4
3.96291	4.38587E-4
3.96442	4.38791E-4
3.96594	4.39522E-4
3.96746	4.40217E-4
3.96898	4.40131E-4
3.97049	4.3959E-4
3.97202	4.39467E-4
3.97354	4.39981E-4
3.97506	4.40533E-4
3.97658	4.40774E-4
3.97811	4.40743E-4
3.97964	4.40219E-4
3.98116	4.39495E-4
3.98269	4.39372E-4
3.98422	4.39778E-4
3.98575	4.40403E-4
3.98729	4.41285E-4
3.98882	4.42185E-4
3.99035	4.4241E-4
3.99189	4.41593E-4
3.99343	4.40685E-4
3.99497	4.40635E-4
3.99651	4.40823E-4
3.99805	4.40792E-4
3.99959	4.41291E-4
4.00113	4.41974E-4
4.00268	4.41742E-4
4.00422	4.41674E-4
4.00577	4.42761E-4
4.00732	4.4341E-4
4.00886	4.42957E-4
4.01041	4.42999E-4
4.01197	4.43685E-4
4.01352	4.43875E-4
4.01507	4.43771E-4
4.01663	4.43943E-4
4.01818	4.4395E-4
4.01974	4.43459E-4
4.0213	4.42896E-4
4.02286	4.43251E-4
4.02442	4.44565E-4
4.02598	4.45623E-4
4.02755	4.46146E-4
4.02911	4.46117E-4
4.03068	4.45459E-4
4.03225	4.44931E-4
4.03381	4.44477E-4
4.03538	4.43635E-4
4.03695	4.43273E-4
4.03853	4.44091E-4
4.0401	4.45206E-4
4.04167	4.4575E-4
4.04325	4.46016E-4
4.04483	4.46375E-4
4.0464	4.46994E-4
4.04798	4.47817E-4
4.04956	4.48362E-4
4.05114	4.48389E-4
4.05273	4.47915E-4
4.05431	4.47236E-4
4.0559	4.46762E-4
4.05748	4.46584E-4
4.05907	4.46351E-4
4.06066	4.46637E-4
4.06225	4.48019E-4
4.06384	4.49088E-4
4.06544	4.49022E-4
4.06703	4.48788E-4
4.06863	4.48648E-4
4.07022	4.48433E-4
4.07182	4.48572E-4
4.07342	4.49028E-4
4.07502	4.49204E-4
4.07662	4.49175E-4
4.07823	4.4952E-4
4.07983	4.5035E-4
4.08144	4.50994E-4
4.08304	4.51078E-4
4.08465	4.51032E-4
4.08626	4.51004E-4
4.08787	4.51051E-4
4.08948	4.51322E-4
4.0911	4.51575E-4
4.09271	4.51716E-4
4.09433	4.51913E-4
4.09595	4.51941E-4
4.09756	4.51839E-4
4.09918	4.52111E-4
4.1008	4.52984E-4
4.10243	4.54103E-4
4.10405	4.54621E-4
4.10567	4.53635E-4
4.1073	4.51823E-4
4.10893	4.51063E-4
4.11056	4.522E-4
4.11219	4.54279E-4
4.11382	4.55496E-4
4.11545	4.55186E-4
4.11708	4.54782E-4
4.11872	4.55359E-4
4.12036	4.55597E-4
4.12199	4.54721E-4
4.12363	4.53808E-4
4.12527	4.53555E-4
4.12691	4.54075E-4
4.12856	4.55256E-4
4.1302	4.56175E-4
4.13185	4.55449E-4
4.13349	4.53382E-4
4.13514	4.52751E-4
4.13679	4.53914E-4
4.13844	4.54379E-4
4.14009	4.53671E-4
4.14175	4.53305E-4
4.1434	4.53656E-4
4.14506	4.54121E-4
4.14671	4.54605E-4
4.14837	4.55545E-4
4.15003	4.56789E-4
4.15169	4.57694E-4
4.15336	4.57649E-4
4.15502	4.57167E-4
4.15669	4.56857E-4
4.15835	4.56318E-4
4.16002	4.5576E-4
4.16169	4.56E-4
4.16336	4.56906E-4
4.16503	4.57983E-4
4.16671	4.59082E-4
4.16838	4.59533E-4
4.17006	4.59127E-4
4.17174	4.58701E-4
4.17341	4.58657E-4
4.17509	4.58765E-4
4.17677	4.58778E-4
4.17846	4.58562E-4
4.18014	4.58251E-4
4.18183	4.58359E-4
4.18351	4.59175E-4
4.1852	4.59647E-4
4.18689	4.59354E-4
4.18858	4.59501E-4
4.19028	4.60587E-4
4.19197	4.61539E-4
4.19367	4.61438E-4
4.19536	4.60283E-4
4.19706	4.58688E-4
4.19876	4.57802E-4
4.20046	4.58236E-4
4.20216	4.59073E-4
4.20386	4.59739E-4
4.20557	4.60942E-4
4.20728	4.62475E-4
4.20898	4.62893E-4
4.21069	4.6185E-4
4.2124	4.60788E-4
4.21411	4.6061E-4
4.21583	4.60951E-4
4.21754	4.611E-4
4.21926	4.60672E-4
4.22097	4.60378E-4
4.22269	4.61201E-4
4.22441	4.62738E-4
4.22613	4.63659E-4
4.22786	4.63713E-4
4.22958	4.63883E-4
4.23131	4.64227E-4
4.23303	4.63837E-4
4.23476	4.62712E-4
4.23649	4.61588E-4
4.23822	4.61236E-4
4.23996	4.61888E-4
4.24169	4.62754E-4
4.24343	4.63388E-4
4.24516	4.64004E-4
4.2469	4.6462E-4
4.24864	4.64926E-4
4.25038	4.64342E-4
4.25213	4.63272E-4
4.25387	4.62978E-4
4.25561	4.63672E-4
4.25736	4.64541E-4
4.25911	4.65295E-4
4.26086	4.66127E-4
4.26261	4.66864E-4
4.26436	4.66744E-4
4.26612	4.65497E-4
4.26787	4.63861E-4
4.26963	4.62595E-4
4.27139	4.62145E-4
4.27315	4.62374E-4
4.27491	4.62817E-4
4.27667	4.633E-4
4.27844	4.63841E-4
4.2802	4.64577E-4
4.28197	4.65763E-4
4.28374	4.67165E-4
4.28551	4.67378E-4
4.28728	4.65716E-4
4.28905	4.639E-4
4.29083	4.63001E-4
4.2926	4.62569E-4
4.29438	4.62682E-4
4.29616	4.63713E-4
4.29794	4.64979E-4
4.29972	4.65953E-4
4.30151	4.66635E-4
4.30329	4.66614E-4
4.30508	4.66201E-4
4.30687	4.65729E-4
4.30865	4.6512E-4
4.31045	4.64765E-4
4.31224	4.64626E-4
4.31403	4.64251E-4
4.31583	4.64347E-4
4.31762	4.65441E-4
4.31942	4.66557E-4
4.32122	4.66653E-4
4.32302	4.66043E-4
4.32483	4.65452E-4
4.32663	4.6494E-4
4.32844	4.64408E-4
4.33024	4.64229E-4
4.33205	4.6405E-4
4.33386	4.63499E-4
4.33567	4.63182E-4
4.33749	4.63788E-4
4.3393	4.64984E-4
4.34112	4.65887E-4
4.34294	4.66436E-4
4.34476	4.66632E-4
4.34658	4.66217E-4
4.3484	4.65211E-4
4.35022	4.63969E-4
4.35205	4.61274E-4
4.35388	4.57877E-4
4.3557	4.61897E-4
4.35754	4.71881E-4
4.35937	4.74877E-4
4.3612	4.71188E-4
4.36303	4.68654E-4
4.36487	4.67408E-4
4.36671	4.65905E-4
4.36855	4.65055E-4
4.37039	4.65191E-4
4.37223	4.65526E-4
4.37408	4.65781E-4
4.37592	4.66215E-4
4.37777	4.67204E-4
4.37962	4.6857E-4
4.38147	4.69046E-4
4.38332	4.6853E-4
4.38517	4.67558E-4
4.38703	4.66903E-4
4.38888	4.67041E-4
4.39074	4.67894E-4
4.3926	4.68986E-4
4.39446	4.69841E-4
4.39633	4.70955E-4
4.39819	4.71972E-4
4.40006	4.71734E-4
4.40192	4.70937E-4
4.40379	4.703E-4
4.40566	4.69225E-4
4.40754	4.67752E-4
4.40941	4.67234E-4
4.41129	4.6815E-4
4.41316	4.69385E-4
4.41504	4.69984E-4
4.41692	4.70224E-4
4.4188	4.70764E-4
4.42069	4.71284E-4
4.42257	4.71126E-4
4.42446	4.70667E-4
4.42635	4.70668E-4
4.42824	4.70589E-4
4.43013	4.7013E-4
4.43202	4.6949E-4
4.43392	4.68911E-4
4.43581	4.69232E-4
4.43771	4.70574E-4
4.43961	4.72239E-4
4.44151	4.73706E-4
4.44342	4.74411E-4
4.44532	4.7385E-4
4.44723	4.72526E-4
4.44913	4.71203E-4
4.45104	4.70301E-4
4.45295	4.70081E-4
4.45487	4.70384E-4
4.45678	4.71008E-4
4.4587	4.71713E-4
4.46062	4.72499E-4
4.46254	4.73669E-4
4.46446	4.74619E-4
4.46638	4.74521E-4
4.4683	4.73676E-4
4.47023	4.73134E-4
4.47216	4.72633E-4
4.47409	4.71284E-4
4.47602	4.705E-4
4.47795	4.72034E-4
4.47989	4.74682E-4
4.48182	4.76283E-4
4.48376	4.76266E-4
4.4857	4.75338E-4
4.48764	4.74552E-4
4.48958	4.73806E-4
4.49153	4.72858E-4
4.49347	4.71668E-4
4.49542	4.74341E-4
4.49737	4.87065E-4
4.49932	4.99623E-4
4.50127	4.97447E-4
4.50323	4.88703E-4
4.50518	4.85026E-4
4.50714	4.84276E-4
4.5091	4.83241E-4
4.51106	4.82001E-4
4.51303	4.81353E-4
4.51499	4.81542E-4
4.51696	4.81813E-4
4.51892	4.81921E-4
4.5209	4.82458E-4
4.52287	4.83303E-4
4.52484	4.83391E-4
4.52681	4.82988E-4
4.52879	4.82871E-4
4.53077	4.82959E-4
4.53275	4.83026E-4
4.53473	4.82643E-4
4.53672	4.81994E-4
4.5387	4.8243E-4
4.54069	4.84201E-4
4.54268	4.85954E-4
4.54467	4.86888E-4
4.54666	4.86998E-4
4.54866	4.86717E-4
4.55065	4.86704E-4
4.55265	4.86939E-4
4.55465	4.87276E-4
4.55665	4.8782E-4
4.55865	4.88406E-4
4.56066	4.89096E-4
4.56266	4.90325E-4
4.56467	4.91783E-4
4.56668	4.93057E-4
4.56869	4.94332E-4
4.57071	4.95049E-4
4.57272	4.94789E-4
4.57474	4.94176E-4
4.57676	4.93771E-4
4.57878	4.9376E-4
4.5808	4.94103E-4
4.58283	4.95154E-4
4.58485	4.97311E-4
4.58688	4.99765E-4
4.58891	5.01199E-4
4.59094	5.01546E-4
4.59297	5.01747E-4
4.59501	5.02389E-4
4.59704	5.03388E-4
4.59908	5.04199E-4
4.60112	5.04674E-4
4.60317	5.05003E-4
4.60521	5.05627E-4
4.60726	5.06631E-4
4.6093	5.07467E-4
4.61135	5.08051E-4
4.6134	5.08551E-4
4.61546	5.08862E-4
4.61751	5.08751E-4
4.61957	5.08238E-4
4.62163	5.08063E-4
4.62369	5.09262E-4
4.62575	5.11416E-4
4.62781	5.13234E-4
4.62988	5.14631E-4
4.63195	5.1569E-4
4.63402	5.15708E-4
4.63609	5.14747E-4
4.63816	5.13723E-4
4.64024	5.13357E-4
4.64232	5.13609E-4
4.64439	5.13902E-4
4.64648	5.14345E-4
4.64856	5.15151E-4
4.65064	5.16043E-4
4.65273	5.17512E-4
4.65482	5.19647E-4
4.65691	5.20865E-4
4.659	5.20585E-4
4.66109	5.19555E-4
4.66319	5.18269E-4
4.66529	5.17561E-4
4.66739	5.17901E-4
4.66949	5.18627E-4
4.67159	5.19224E-4
4.6737	5.19609E-4
4.6758	5.19671E-4
4.67791	5.19627E-4
4.68002	5.19647E-4
4.68214	5.1943E-4
4.68425	5.18763E-4
4.68637	5.17967E-4
4.68849	5.17686E-4
4.69061	5.17878E-4
4.69273	5.18133E-4
4.69485	5.18454E-4
4.69698	5.18538E-4
4.69911	5.17913E-4
4.70124	5.17395E-4
4.70337	5.17716E-4
4.70551	5.18059E-4
4.70764	5.17885E-4
4.70978	5.17517E-4
4.71192	5.16956E-4
4.71406	5.16266E-4
4.7162	5.16006E-4
4.71835	5.16133E-4
4.7205	5.16195E-4
4.72265	5.16236E-4
4.7248	5.16472E-4
4.72695	5.16664E-4
4.72911	5.1677E-4
4.73126	5.17135E-4
4.73343	5.17717E-4
4.73559	5.1791E-4
4.73775	5.17693E-4
4.73991	5.17735E-4
4.74208	5.18383E-4
4.74425	5.19074E-4
4.74642	5.19312E-4
4.7486	5.19051E-4
4.75077	5.18444E-4
4.75295	5.17707E-4
4.75513	5.17208E-4
4.75731	5.17446E-4
4.75949	5.18181E-4
4.76168	5.18333E-4
4.76386	5.1805E-4
4.76605	5.18462E-4
4.76824	5.19591E-4
4.77044	5.20721E-4
4.77263	5.21548E-4
4.77483	5.21658E-4
4.77703	5.21049E-4
4.77923	5.21158E-4
4.78144	5.22161E-4
4.78364	5.22446E-4
4.78585	5.21727E-4
4.78806	5.21052E-4
4.79027	5.20813E-4
4.79248	5.20879E-4
4.7947	5.21469E-4
4.79692	5.22606E-4
4.79914	5.23001E-4
4.80136	5.22106E-4
4.80358	5.21429E-4
4.80581	5.22152E-4
4.80804	5.2316E-4
4.81027	5.22987E-4
4.8125	5.22112E-4
4.81473	5.21567E-4
4.81697	5.21524E-4
4.81921	5.22161E-4
4.82145	5.23083E-4
4.82369	5.22866E-4
4.82593	5.21859E-4
4.82818	5.21948E-4
4.83043	5.22587E-4
4.83268	5.22479E-4
4.83493	5.22722E-4
4.83719	5.23889E-4
4.83945	5.2497E-4
4.84171	5.25457E-4
4.84397	5.25571E-4
4.84623	5.25618E-4
4.8485	5.25798E-4
4.85076	5.25712E-4
4.85303	5.249E-4
4.8553	5.24373E-4
4.85758	5.25237E-4
4.85986	5.26521E-4
4.86213	5.27276E-4
4.86441	5.27767E-4
4.8667	5.27749E-4
4.86898	5.27089E-4
4.87127	5.26673E-4
4.87356	5.27252E-4
4.87585	5.28564E-4
4.87814	5.2939E-4
4.88044	5.29128E-4
4.88274	5.286E-4
4.88504	5.2845E-4
4.88734	5.28499E-4
4.88964	5.28704E-4
4.89195	5.29464E-4
4.89426	5.30404E-4
4.89657	5.30899E-4
4.89888	5.31328E-4
4.9012	5.31936E-4
4.90351	5.325E-4
4.90583	5.32752E-4
4.90816	5.32669E-4
4.91048	5.32787E-4
4.91281	5.33174E-4
4.91514	5.33002E-4
4.91747	5.32427E-4
4.9198	5.32724E-4
4.92213	5.3347E-4
4.92447	5.33544E-4
4.92681	5.33327E-4
4.92915	5.33177E-4
4.93149	5.32579E-4
4.93384	5.32049E-4
4.93619	5.33714E-4
4.93854	5.36776E-4
4.94089	5.38044E-4
4.94325	5.3758E-4
4.94561	5.36778E-4
4.94796	5.36584E-4
4.95033	5.37629E-4
4.95269	5.38652E-4
4.95506	5.39135E-4
4.95743	5.39776E-4
4.9598	5.40419E-4
4.96217	5.40541E-4
4.96454	5.39828E-4
4.96692	5.39205E-4
4.9693	5.40029E-4
4.97168	5.41442E-4
4.97407	5.42835E-4
4.97646	5.44593E-4
4.97884	5.45991E-4
4.98124	5.47072E-4
4.98363	5.48087E-4
4.98603	5.48214E-4
4.98842	5.47679E-4
4.99082	5.4751E-4
4.99323	5.47659E-4
4.99563	5.4806E-4
4.99804	5.49055E-4
5.00045	5.50188E-4
5.00286	5.50568E-4
5.00528	5.50582E-4
5.00769	5.51168E-4
5.01011	5.52168E-4
5.01253	5.52939E-4
5.01496	5.53344E-4
5.01739	5.53772E-4
5.01981	5.54178E-4
5.02224	5.54585E-4
5.02468	5.55382E-4
5.02711	5.56365E-4
5.02955	5.57234E-4
5.03199	5.58519E-4
5.03443	5.59807E-4
5.03688	5.5994E-4
5.03933	5.59403E-4
5.04178	5.59675E-4
5.04423	5.61035E-4
5.04668	5.62234E-4
5.04914	5.6281E-4
5.0516	5.64081E-4
5.05406	5.66285E-4
5.05652	5.67771E-4
5.05899	5.68025E-4
5.06146	5.6758E-4
5.06393	5.6625E-4
5.06641	5.65106E-4
5.06888	5.65313E-4
5.07136	5.66032E-4
5.07384	5.67218E-4
5.07633	5.69504E-4
5.07881	5.71444E-4
5.0813	5.71653E-4
5.08379	5.71231E-4
5.08628	5.71136E-4
5.08878	5.7062E-4
5.09128	5.70385E-4
5.09378	5.71955E-4
5.09628	5.74137E-4
5.09879	5.74937E-4
5.1013	5.74655E-4
5.10381	5.75244E-4
5.10632	5.77317E-4
5.10883	5.79301E-4
5.11135	5.79515E-4
5.11387	5.7836E-4
5.1164	5.77772E-4
5.11892	5.78128E-4
5.12145	5.78177E-4
5.12398	5.77848E-4
5.12651	5.77969E-4
5.12905	5.7868E-4
5.13158	5.7989E-4
5.13413	5.80888E-4
5.13667	5.81152E-4
5.13921	5.81321E-4
5.14176	5.81538E-4
5.14431	5.81447E-4
5.14687	5.81569E-4
5.14942	5.82238E-4
5.15198	5.82979E-4
5.15454	5.83555E-4
5.1571	5.83964E-4
5.15967	5.84135E-4
5.16224	5.84378E-4
5.16481	5.85075E-4
5.16738	5.8551E-4
5.16996	5.84823E-4
5.17254	5.83563E-4
5.17512	5.83043E-4
5.1777	5.84026E-4
5.18029	5.85943E-4
5.18288	5.87409E-4
5.18547	5.88254E-4
5.18806	5.88956E-4
5.19066	5.88987E-4
5.19326	5.8825E-4
5.19586	5.88136E-4
5.19846	5.88743E-4
5.20107	5.88606E-4
5.20368	5.88085E-4
5.20629	5.88476E-4
5.20891	5.90167E-4
5.21153	5.92824E-4
5.21414	5.94957E-4
5.21677	5.94966E-4
5.21939	5.93478E-4
5.22202	5.92642E-4
5.22465	5.92796E-4
5.22728	5.92587E-4
5.22992	5.92354E-4
5.23256	5.93137E-4
5.2352	5.94428E-4
5.23785	5.95818E-4
5.24049	5.97696E-4
5.24314	5.99261E-4
5.24579	5.99467E-4
5.24845	5.98701E-4
5.25111	5.97886E-4
5.25376	5.97338E-4
5.25643	5.97082E-4
5.25909	5.97214E-4
5.26176	5.98636E-4
5.26443	6.01524E-4
5.26711	6.03832E-4
5.26978	6.04384E-4
5.27246	6.04495E-4
5.27514	6.05292E-4
5.27783	6.06433E-4
5.28052	6.06865E-4
5.28321	6.07125E-4
5.2859	6.08146E-4
5.28859	6.09267E-4
5.29129	6.10513E-4
5.29399	6.12524E-4
5.2967	6.14267E-4
5.2994	6.15001E-4
5.30211	6.15439E-4
5.30483	6.1563E-4
5.30754	6.15352E-4
5.31026	6.15692E-4
5.31298	6.17294E-4
5.3157	6.19471E-4
5.31843	6.21577E-4
5.32116	6.23587E-4
5.32389	6.25053E-4
5.32662	6.26198E-4
5.32936	6.27593E-4
5.3321	6.2859E-4
5.33484	6.28638E-4
5.33759	6.28362E-4
5.34034	6.28335E-4
5.34309	6.29284E-4
5.34584	6.31062E-4
5.3486	6.32894E-4
5.35136	6.34854E-4
5.35412	6.37397E-4
5.35689	6.39845E-4
5.35965	6.41085E-4
5.36243	6.4124E-4
5.3652	6.41243E-4
5.36798	6.40942E-4
5.37076	6.40086E-4
5.37354	6.40063E-4
5.37633	6.42345E-4
5.37911	6.46128E-4
5.38191	6.49159E-4
5.3847	6.50515E-4
5.3875	6.51261E-4
5.3903	6.52008E-4
5.3931	6.52142E-4
5.39591	6.5192E-4
5.39872	6.52362E-4
5.40153	6.53468E-4
5.40434	6.54807E-4
5.40716	6.56891E-4
5.40998	6.6011E-4
5.4128	6.63414E-4
5.41563	6.65875E-4
5.41846	6.67643E-4
5.42129	6.68639E-4
5.42413	6.68988E-4
5.42697	6.69261E-4
5.42981	6.69197E-4
5.43265	6.69055E-4
5.4355	6.70235E-4
5.43835	6.72559E-4
5.4412	6.74966E-4
5.44406	6.77091E-4
5.44692	6.78647E-4
5.44978	6.79291E-4
5.45265	6.79543E-4
5.45551	6.80136E-4
5.45839	6.81541E-4
5.46126	6.83785E-4
5.46414	6.86271E-4
5.46702	6.88104E-4
5.4699	6.8902E-4
5.47279	6.89647E-4
5.47568	6.91118E-4
5.47857	6.9267E-4
5.48146	6.92482E-4
5.48437	6.91898E-4
5.48727	6.92818E-4
5.49017	6.94798E-4
5.49308	6.97312E-4
5.49599	7.00097E-4
5.4989	7.02968E-4
5.50182	7.05553E-4
5.50474	7.07288E-4
5.50767	7.08679E-4
5.51059	7.10046E-4
5.51352	7.1053E-4
5.51645	7.10854E-4
5.51939	7.12841E-4
5.52233	7.15773E-4
5.52527	7.17876E-4
5.52822	7.20091E-4
5.53116	7.23013E-4
5.53412	7.25509E-4
5.53707	7.2744E-4
5.54003	7.29131E-4
5.54299	7.30444E-4
5.54595	7.31596E-4
5.54892	7.33104E-4
5.55189	7.34913E-4
5.55486	7.37299E-4
5.55784	7.39936E-4
5.56082	7.42223E-4
5.56381	7.44514E-4
5.56679	7.46425E-4
5.56978	7.47541E-4
5.57278	7.49678E-4
5.57577	7.53668E-4
5.57877	7.5684E-4
5.58177	7.57857E-4
5.58478	7.58931E-4
5.58779	7.612E-4
5.5908	7.63473E-4
5.59381	7.65027E-4
5.59684	7.66806E-4
5.59986	7.69063E-4
5.60288	7.70038E-4
5.60591	7.70174E-4
5.60894	7.72075E-4
5.61198	7.75747E-4
5.61502	7.79373E-4
5.61806	7.8205E-4
5.6211	7.84506E-4
5.62415	7.87449E-4
5.6272	7.90398E-4
5.63026	7.92218E-4
5.63331	7.92563E-4
5.63638	7.93563E-4
5.63944	7.97041E-4
5.64251	8.01157E-4
5.64558	8.04025E-4
5.64865	8.06211E-4
5.65174	8.08516E-4
5.65482	8.10653E-4
5.6579	8.12132E-4
5.66099	8.13209E-4
5.66408	8.14403E-4
5.66718	8.16205E-4
5.67027	8.19023E-4
5.67338	8.22485E-4
5.67648	8.25347E-4
5.67959	8.26933E-4
5.6827	8.2823E-4
5.68582	8.30638E-4
5.68894	8.34922E-4
5.69206	8.41362E-4
5.69519	8.46001E-4
5.69831	8.45052E-4
5.70145	8.43367E-4
5.70458	8.45834E-4
5.70772	8.50789E-4
5.71087	8.5567E-4
5.71401	8.59112E-4
5.71716	8.61252E-4
5.72032	8.63336E-4
5.72347	8.65722E-4
5.72663	8.67336E-4
5.7298	8.68773E-4
5.73297	8.7156E-4
5.73614	8.74533E-4
5.73931	8.77604E-4
5.74249	8.82493E-4
5.74567	8.8767E-4
5.74885	8.91134E-4
5.75204	8.9403E-4
5.75523	8.97419E-4
5.75843	9.00878E-4
5.76163	9.04774E-4
5.76483	9.09172E-4
5.76804	9.12413E-4
5.77125	9.14184E-4
5.77446	9.16543E-4
5.77768	9.20329E-4
5.7809	9.23505E-4
5.78412	9.24269E-4
5.78735	9.24195E-4
5.79058	9.26854E-4
5.79382	9.31729E-4
5.79705	9.35152E-4
5.8003	9.37051E-4
5.80354	9.39861E-4
5.80679	9.43902E-4
5.81005	9.47765E-4
5.8133	9.5085E-4
5.81656	9.53911E-4
5.81983	9.57516E-4
5.82309	9.61194E-4
5.82637	9.64883E-4
5.82964	9.68804E-4
5.83292	9.72575E-4
5.8362	9.7562E-4
5.83949	9.78383E-4
5.84278	9.81537E-4
5.84607	9.85763E-4
5.84937	9.91035E-4
5.85267	9.9639E-4
5.85598	0.001
5.85928	0.00101
5.8626	0.00101
5.86591	0.00101
5.86923	0.00102
5.87256	0.00102
5.87588	0.00103
5.87921	0.00104
5.88255	0.00104
5.88589	0.00104
5.88923	0.00105
5.89257	0.00106
5.89592	0.00106
5.89928	0.00106
5.90264	0.00107
5.906	0.00107
5.90936	0.00108
5.91273	0.00108
5.91611	0.00109
5.91948	0.0011
5.92286	0.0011
5.92625	0.00111
5.92964	0.00111
5.93303	0.00112
5.93642	0.00112
5.93982	0.00113
5.94323	0.00113
5.94664	0.00114
5.95005	0.00115
5.95346	0.00115
5.95688	0.00115
5.96031	0.00116
5.96373	0.00116
5.96716	0.00117
5.9706	0.00118
5.97404	0.00118
5.97748	0.00118
5.98093	0.00119
5.98438	0.0012
5.98784	0.0012
5.9913	0.00121
5.99476	0.00122
5.99822	0.00122
6.0017	0.00122
6.00517	0.00123
6.00865	0.00123
6.01213	0.00124
6.01562	0.00125
6.01911	0.00126
6.02261	0.00126
6.02611	0.00127
6.02961	0.00127
6.03312	0.00127
6.03663	0.00128
6.04015	0.00129
6.04367	0.0013
6.04719	0.00131
6.05072	0.00131
6.05425	0.00132
6.05779	0.00132
6.06133	0.00132
6.06487	0.00133
6.06842	0.00134
6.07197	0.00134
6.07553	0.00135
6.07909	0.00135
6.08266	0.00136
6.08623	0.00136
6.0898	0.00137
6.09338	0.00138
6.09696	0.00138
6.10055	0.00139
6.10414	0.0014
6.10774	0.0014
6.11133	0.00141
6.11494	0.00142
6.11854	0.00142
6.12216	0.00142
6.12577	0.00143
6.12939	0.00144
6.13302	0.00144
6.13665	0.00145
6.14028	0.00146
6.14392	0.00147
6.14756	0.00147
6.1512	0.00147
6.15486	0.00148
6.15851	0.00149
6.16217	0.0015
6.16583	0.00151
6.1695	0.00151
6.17317	0.00152
6.17685	0.00153
6.18053	0.00154
6.18422	0.00155
6.18791	0.00156
6.1916	0.00156
6.1953	0.00157
6.19901	0.00158
6.20271	0.00159
6.20642	0.0016
6.21014	0.00161
6.21386	0.00161
6.21759	0.00162
6.22132	0.00163
6.22505	0.00163
6.22879	0.00164
6.23253	0.00165
6.23628	0.00166
6.24003	0.00167
6.24379	0.00168
6.24755	0.00169
6.25132	0.0017
6.25509	0.00171
6.25886	0.00172
6.26264	0.00173
6.26643	0.00174
6.27021	0.00175
6.27401	0.00176
6.2778	0.00177
6.28161	0.00178
6.28541	0.00179
6.28923	0.0018
6.29304	0.00181
6.29686	0.00183
6.30069	0.00184
6.30452	0.00185
6.30835	0.00186
6.31219	0.00187
6.31604	0.00189
6.31989	0.0019
6.32374	0.00191
6.3276	0.00192
6.33146	0.00194
6.33533	0.00195
6.3392	0.00197
6.34308	0.00198
6.34696	0.002
6.35085	0.00201
6.35474	0.00202
6.35863	0.00204
6.36254	0.00205
6.36644	0.00207
6.37035	0.00209
6.37427	0.0021
6.37819	0.00211
6.38211	0.00213
6.38604	0.00214
6.38998	0.00216
6.39392	0.00218
6.39786	0.00219
6.40181	0.00221
6.40576	0.00222
6.40972	0.00224
6.41369	0.00226
6.41766	0.00228
6.42163	0.00229
6.42561	0.0023
6.42959	0.00232
6.43358	0.00234
6.43757	0.00236
6.44157	0.00238
6.44557	0.00239
6.44959	0.00241
6.4536	0.00242
6.45762	0.00244
6.46164	0.00246
6.46567	0.00248
6.4697	0.0025
6.47374	0.00252
6.47778	0.00253
6.48183	0.00255
6.48589	0.00256
6.48995	0.00258
6.49401	0.0026
6.49808	0.00261
6.50215	0.00263
6.50623	0.00264
6.51031	0.00266
6.5144	0.00268
6.5185	0.00269
6.5226	0.00271
6.5267	0.00272
6.53081	0.00273
6.53493	0.00275
6.53905	0.00276
6.54318	0.00277
6.5473	0.00278
6.55144	0.0028
6.55558	0.00281
6.55973	0.00282
6.56388	0.00283
6.56804	0.00285
6.5722	0.00286
6.57637	0.00287
6.58054	0.00288
6.58472	0.00289
6.5889	0.0029
6.59309	0.00291
6.59729	0.00292
6.60148	0.00293
6.60569	0.00295
6.6099	0.00296
6.61412	0.00297
6.61834	0.00297
6.62256	0.00298
6.6268	0.00299
6.63103	0.00301
6.63527	0.00302
6.63952	0.00304
6.64378	0.00304
6.64803	0.00305
6.6523	0.00305
6.65657	0.00306
6.66085	0.00307
6.66512	0.00308
6.66941	0.00309
6.6737	0.00311
6.678	0.00311
6.6823	0.00312
6.68661	0.00312
6.69092	0.00313
6.69524	0.00313
6.69957	0.00314
6.7039	0.00315
6.70824	0.00316
6.71258	0.00317
6.71693	0.00317
6.72128	0.00317
6.72564	0.00318
6.73	0.00322
6.73437	0.00326
6.73875	0.00326
6.74313	0.00325
6.74752	0.00324
6.75191	0.00324
6.75631	0.00325
6.76071	0.00326
6.76512	0.00326
6.76954	0.00327
6.77396	0.00327
6.77839	0.00328
6.78282	0.00329
6.78726	0.0033
6.79171	0.00331
6.79616	0.00332
6.80061	0.00332
6.80507	0.00333
6.80954	0.00333
6.81402	0.00333
6.8185	0.00334
6.82298	0.00336
6.82747	0.00336
6.83197	0.00337
6.83648	0.00337
6.84098	0.00338
6.8455	0.00339
6.85002	0.0034
6.85455	0.00341
6.85908	0.00342
6.86362	0.00343
6.86817	0.00344
6.87272	0.00345
6.87728	0.00346
6.88184	0.00347
6.88641	0.00348
6.89099	0.00349
6.89557	0.0035
6.90015	0.00351
6.90475	0.00352
6.90935	0.00353
6.91396	0.00354
6.91857	0.00356
6.92318	0.00357
6.92781	0.00358
6.93244	0.0036
6.93708	0.00361
6.94172	0.00362
6.94637	0.00363
6.95103	0.00365
6.95569	0.00367
6.96036	0.00369
6.96503	0.0037
6.96971	0.00371
6.9744	0.00373
6.97909	0.00374
6.98379	0.00376
6.9885	0.00378
6.99321	0.0038
6.99793	0.00381
7.00265	0.00382
7.00739	0.00383
7.01213	0.00385
7.01687	0.00387
7.02162	0.00389
7.02638	0.0039
7.03114	0.00391
7.03591	0.00392
7.04069	0.00394
7.04547	0.00397
7.05026	0.00399
7.05506	0.00401
7.05986	0.00404
7.06467	0.00405
7.06949	0.00407
7.07431	0.00409
7.07913	0.00411
7.08397	0.00414
7.08882	0.00416
7.09366	0.00418
7.09852	0.0042
7.10338	0.00423
7.10825	0.00425
7.11312	0.00427
7.11801	0.00429
7.12289	0.00431
7.12779	0.00434
7.13269	0.00436
7.1376	0.00438
7.14252	0.00441
7.14744	0.00443
7.15237	0.00446
7.1573	0.00448
7.16225	0.00451
7.16719	0.00454
7.17216	0.00456
7.17712	0.00458
7.18209	0.00459
7.18706	0.00462
7.19205	0.00465
7.19704	0.00468
7.20204	0.00471
7.20704	0.00473
7.21205	0.00476
7.21707	0.00479
7.2221	0.00482
7.22713	0.00483
7.23217	0.00484
7.23722	0.00486
7.24227	0.0049
7.24733	0.00494
7.2524	0.00497
7.25747	0.005
7.26256	0.00503
7.26765	0.00507
7.27274	0.00511
7.27785	0.00513
7.28296	0.00515
7.28808	0.00516
7.2932	0.00518
7.29833	0.0052
7.30348	0.00524
7.30862	0.00527
7.31377	0.00531
7.31894	0.00534
7.32411	0.00536
7.32928	0.00539
7.33446	0.00543
7.33965	0.00547
7.34485	0.0055
7.35006	0.00552
7.35527	0.00555
7.36049	0.00558
7.36572	0.00562
7.37096	0.00565
7.3762	0.00568
7.38145	0.0057
7.3867	0.00573
7.39197	0.00577
7.39724	0.00581
7.40252	0.00584
7.40781	0.00586
7.4131	0.00589
7.41841	0.00593
7.42372	0.00596
7.42903	0.00599
7.43436	0.00603
7.4397	0.00607
7.44504	0.00612
7.45038	0.00616
7.45574	0.00621
7.46111	0.00624
7.46648	0.00626
7.47185	0.00629
7.47724	0.00634
7.48264	0.00638
7.48804	0.00641
7.49345	0.00643
7.49887	0.00646
7.50429	0.00649
7.50973	0.00652
7.51517	0.00656
7.52062	0.00661
7.52607	0.00665
7.53154	0.00669
7.53702	0.00673
7.5425	0.00677
7.54798	0.00681
7.55349	0.00684
7.55899	0.00688
7.5645	0.00692
7.57002	0.00695
7.57555	0.00699
7.58109	0.00703
7.58664	0.00707
7.59219	0.00712
7.59775	0.00716
7.60333	0.00721
7.6089	0.00724
7.61449	0.00726
7.62008	0.0073
7.62569	0.00734
7.6313	0.00738
7.63692	0.00743
7.64254	0.00747
7.64818	0.00749
7.65383	0.0075
7.65948	0.00752
7.66514	0.00756
7.67081	0.0076
7.67649	0.00763
7.68217	0.00765
7.68787	0.00767
7.69357	0.0077
7.69928	0.0077
7.705	0.00767
7.71073	0.00771
7.71647	0.00792
7.72222	0.00811
7.72797	0.00815
7.73373	0.00812
7.7395	0.00813
7.74528	0.00815
7.75107	0.00818
7.75687	0.00819
7.76267	0.00821
7.76849	0.00826
7.77431	0.0083
7.78015	0.00832
7.78599	0.00836
7.79183	0.00842
7.7977	0.00849
7.80356	0.00854
7.80944	0.00853
7.81532	0.00851
7.82122	0.00851
7.82712	0.00852
7.83303	0.00854
7.83895	0.00856
7.84488	0.00858
7.85082	0.00861
7.85677	0.00865
7.86272	0.00869
7.86869	0.00871
7.87467	0.00873
7.88065	0.00878
7.88664	0.00884
7.89264	0.00888
7.89866	0.0089
7.90468	0.00893
7.9107	0.00897
7.91674	0.00897
7.92279	0.009
7.92885	0.00905
7.93491	0.00909
7.94099	0.00913
7.94707	0.00915
7.95317	0.00915
7.95927	0.00918
7.96539	0.00924
7.97151	0.00928
7.97764	0.00935
7.98378	0.00943
7.98993	0.00947
7.99609	0.00946
8.00227	0.00943
8.00844	0.00942
8.01463	0.00948
8.02083	0.00955
8.02704	0.0096
8.03326	0.00962
8.03948	0.00961
8.04572	0.00961
8.05196	0.00966
8.05823	0.00975
8.06449	0.00985
8.07076	0.00994
8.07705	0.00995
8.08335	0.00994
8.08965	0.01
8.09597	0.01008
8.10229	0.01009
8.10862	0.01005
8.11497	0.01006
8.12133	0.01013
8.12769	0.01022
8.13406	0.01026
8.14045	0.01019
8.14685	0.01012
8.15325	0.01016
8.15966	0.01025
8.16609	0.01029
8.17253	0.01027
8.17897	0.01027
8.18542	0.0103
8.19189	0.01035
8.19837	0.01043
8.20485	0.0105
8.21135	0.01051
8.21785	0.01049
8.22437	0.01083
8.2309	0.01161
8.23744	0.0118
8.24398	0.0113
8.25055	0.01112
8.25711	0.01113
8.26369	0.01099
8.27028	0.01085
8.27688	0.0109
8.28349	0.01102
8.29011	0.01104
8.29674	0.01103
8.30339	0.01111
8.31004	0.01125
8.31671	0.01134
8.32338	0.01137
8.33006	0.0114
8.33677	0.01144
8.34347	0.01146
8.35019	0.01153
8.35691	0.01169
8.36366	0.01185
8.37041	0.01189
8.37717	0.01184
8.38394	0.01177
8.39073	0.01176
8.39752	0.01186
8.40432	0.012
8.41114	0.01201
8.41796	0.01195
8.42481	0.01197
8.43165	0.01204
8.43851	0.01213
8.44538	0.01225
8.45227	0.01237
8.45916	0.01249
8.46607	0.01256
8.47298	0.01249
8.47992	0.01249
8.48685	0.01263
8.4938	0.01267
8.50076	0.01257
8.50773	0.01253
8.51473	0.01272
8.52172	0.01298
8.52873	0.01307
8.53574	0.01301
8.54278	0.01301
8.54982	0.01325
8.55687	0.01355
8.56394	0.01355
8.57102	0.01334
8.57811	0.01325
8.58521	0.01331
8.59232	0.01329
8.59945	0.01324
8.60659	0.01336
8.61373	0.01358
8.62089	0.01372
8.62806	0.01379
8.63525	0.01389
8.64244	0.014
8.64965	0.01413
8.65687	0.01423
8.66411	0.01417
8.67135	0.01405
8.6786	0.01398
8.68587	0.01414
8.69316	0.0146
8.70045	0.01498
8.70775	0.01498
8.71507	0.01499
8.7224	0.01525
8.72974	0.01548
8.7371	0.01535
8.74446	0.01514
8.75184	0.01511
8.75924	0.01511
8.76664	0.01504
8.77405	0.01507
8.78148	0.01526
8.78893	0.01555
8.79638	0.01585
8.80385	0.01596
8.81133	0.01585
8.81882	0.0157
8.82633	0.01543
8.83384	0.01519
8.84137	0.01541
8.84892	0.01579
8.85648	0.01586
8.86405	0.01587
8.87163	0.01619
