#SUBSTANCE=Low-Fe Olivine
#DESCRIPTION=Refractive index of low-Fe olivine (Mg<sub>1.9</sub>Fe<sub>0.1</sub>SiO<sub>4</sub>) (E||x)
#REFERENCE=Zeidler, S., Posch, T., Mutschke, H., Richter, H. and Wehrhan, O., 2011. Near-infrared absorption properties of oxygen-rich stardust analogs-The influence of coloring metal ions. Astronomy & Astrophysics, 526, p.A68.
#DOI=10.1051/0004-6361/201015219
#FORMAT=WAVN N K
1.221	2.626558	0.000082
2.441	2.626581	0.000165
3.662	2.62662	0.000247
4.883	2.626676	0.00033
6.103	2.626746	0.000412
7.324	2.626833	0.000495
8.545	2.626935	0.000578
9.766	2.627053	0.00066
10.986	2.627187	0.000743
12.207	2.627337	0.000826
13.428	2.627502	0.000909
14.648	2.627683	0.000992
15.869	2.627881	0.001076
17.09	2.628094	0.001159
18.31	2.628323	0.001243
19.531	2.628568	0.001326
20.752	2.628829	0.00141
21.973	2.629106	0.001494
23.193	2.629399	0.001579
24.414	2.629708	0.001663
25.635	2.630033	0.001748
26.855	2.630375	0.001833
28.076	2.630733	0.001919
29.297	2.631107	0.002004
30.517	2.631497	0.00209
31.738	2.631904	0.002176
32.959	2.632327	0.002262
34.18	2.632767	0.002349
35.4	2.633223	0.002436
36.621	2.633696	0.002524
37.842	2.634186	0.002611
39.062	2.634692	0.002699
40.283	2.635216	0.002788
41.504	2.635756	0.002877
42.724	2.636313	0.002966
43.945	2.636887	0.003056
45.166	2.637479	0.003146
46.387	2.638087	0.003237
47.607	2.638713	0.003328
48.828	2.639357	0.003419
50.049	2.640018	0.003511
51.269	2.640696	0.003604
52.49	2.641392	0.003697
53.711	2.642107	0.003791
54.931	2.642838	0.003885
56.152	2.643589	0.00398
57.373	2.644356	0.004075
58.594	2.645143	0.004171
59.814	2.645948	0.004268
61.035	2.646771	0.004366
62.256	2.647613	0.004464
63.476	2.648474	0.004563
64.697	2.649353	0.004662
65.918	2.650252	0.004762
67.138	2.65117	0.004863
68.359	2.652107	0.004965
69.58	2.653064	0.005068
70.801	2.65404	0.005171
72.021	2.655036	0.005276
73.242	2.656052	0.005381
74.463	2.657088	0.005487
75.683	2.658144	0.005594
76.904	2.659221	0.005702
78.125	2.660319	0.005811
79.345	2.661438	0.005921
80.566	2.662577	0.006032
81.787	2.663738	0.006145
83.008	2.66492	0.006258
84.228	2.666123	0.006372
85.449	2.667349	0.006488
86.67	2.668597	0.006605
87.89	2.669867	0.006723
89.111	2.67116	0.006843
90.332	2.672476	0.006963
91.552	2.673814	0.007086
92.773	2.675176	0.007209
93.994	2.676562	0.007334
95.215	2.677971	0.007461
96.435	2.679405	0.007589
97.656	2.680863	0.007719
98.877	2.682346	0.00785
100.097	2.683854	0.007983
101.318	2.685387	0.008118
102.539	2.686946	0.008255
103.759	2.688531	0.008394
104.98	2.690142	0.008534
106.201	2.691781	0.008677
107.422	2.693446	0.008822
108.642	2.695139	0.008969
109.863	2.69686	0.009118
111.084	2.698609	0.00927
112.304	2.700387	0.009423
113.525	2.702194	0.00958
114.746	2.704031	0.009739
115.966	2.705899	0.009901
117.187	2.707797	0.010066
118.408	2.709725	0.010234
119.629	2.711686	0.010405
120.849	2.713679	0.010579
122.07	2.715705	0.010756
123.291	2.717764	0.010937
124.511	2.719858	0.011122
125.732	2.721986	0.011311
126.953	2.72415	0.011503
128.173	2.72635	0.0117
129.394	2.728587	0.011901
130.615	2.730861	0.012107
131.836	2.733174	0.012318
133.056	2.735527	0.012534
134.277	2.737919	0.012756
135.498	2.740353	0.012983
136.718	2.742829	0.013217
137.939	2.745348	0.013457
139.16	2.747912	0.013703
140.38	2.750521	0.013958
141.601	2.753177	0.01422
142.822	2.755881	0.01449
144.043	2.758634	0.014769
145.263	2.761438	0.015058
146.484	2.764295	0.015357
147.705	2.767206	0.015666
148.925	2.770172	0.015988
150.146	2.773197	0.016322
151.367	2.776281	0.016671
152.587	2.779427	0.017034
153.808	2.782637	0.017413
155.029	2.785914	0.01781
156.25	2.789261	0.018227
157.47	2.79268	0.018665
158.691	2.796174	0.019126
159.912	2.799748	0.019613
161.132	2.803403	0.020129
162.353	2.807146	0.020677
163.574	2.81098	0.02126
164.794	2.814909	0.021883
166.015	2.818939	0.02255
167.236	2.823076	0.023268
168.457	2.827327	0.024043
169.677	2.831697	0.024883
170.898	2.836194	0.025798
172.119	2.840828	0.026799
173.339	2.845605	0.0279
174.56	2.850537	0.029116
175.781	2.855634	0.030467
177.001	2.860905	0.031977
178.222	2.866364	0.033677
179.443	2.872021	0.035601
180.664	2.877887	0.037795
181.884	2.883969	0.040315
183.105	2.890272	0.043232
184.326	2.896793	0.046633
185.546	2.903515	0.05063
186.767	2.910398	0.055362
187.988	2.917368	0.061
189.208	2.924289	0.067751
190.429	2.930933	0.075854
191.65	2.936929	0.08556
192.871	2.941704	0.097073
194.091	2.944419	0.110437
195.312	2.943974	0.125319
196.533	2.939163	0.140724
197.753	2.929149	0.154762
198.974	2.914202	0.16483
200.195	2.896276	0.168516
201.415	2.878631	0.164888
202.636	2.864438	0.155088
203.857	2.855468	0.141617
205.078	2.851837	0.127033
206.298	2.852631	0.113134
207.519	2.856641	0.100829
208.74	2.862786	0.090397
209.96	2.87026	0.081771
211.181	2.878516	0.074735
212.402	2.887203	0.069039
213.622	2.896107	0.064447
214.843	2.905106	0.060757
216.064	2.91413	0.057802
217.285	2.923148	0.055448
218.505	2.932149	0.053588
219.726	2.941136	0.052139
220.947	2.950119	0.051033
222.167	2.95911	0.050219
223.388	2.968128	0.049655
224.609	2.977189	0.049309
225.829	2.986313	0.049155
227.05	2.995517	0.049174
228.271	3.00482	0.049349
229.492	3.014242	0.049671
230.712	3.0238	0.05013
231.933	3.033515	0.050721
233.154	3.043406	0.051442
234.374	3.053493	0.052293
235.595	3.063797	0.053273
236.816	3.074341	0.054389
238.036	3.085145	0.055645
239.257	3.096238	0.057051
240.478	3.107643	0.058617
241.699	3.119391	0.060358
242.919	3.131512	0.062291
244.14	3.14404	0.064439
245.361	3.157013	0.066827
246.581	3.170473	0.06949
247.802	3.184465	0.072466
249.023	3.199042	0.075806
250.243	3.214259	0.07957
251.464	3.23018	0.083836
252.685	3.246876	0.0887
253.906	3.264424	0.094282
255.126	3.282908	0.100739
256.347	3.302415	0.108271
257.568	3.323033	0.117137
258.788	3.344841	0.127678
260.009	3.367891	0.140348
261.23	3.392169	0.155741
262.45	3.417537	0.174652
263.671	3.443622	0.198116
264.892	3.469608	0.227448
266.113	3.493897	0.264176
267.333	3.513611	0.30975
268.554	3.524015	0.364659
269.775	3.518473	0.426595
270.995	3.490356	0.487845
272.216	3.438369	0.534476
273.437	3.372541	0.551944
274.657	3.312245	0.535897
275.878	3.274332	0.496248
277.099	3.26422	0.449016
278.32	3.277963	0.406667
279.54	3.308729	0.375466
280.761	3.350774	0.357557
281.982	3.400343	0.35357
283.202	3.455164	0.36433
284.423	3.513507	0.391842
285.644	3.572934	0.43995
286.864	3.628245	0.514657
288.085	3.667852	0.623133
289.306	3.66872	0.768125
290.527	3.596372	0.93245
291.747	3.429259	1.060729
292.968	3.205508	1.08296
294.189	3.012894	0.987475
295.409	2.907754	0.832178
296.63	2.88467	0.679196
297.851	2.912086	0.557003
299.071	2.96347	0.468558
300.292	3.023911	0.407824
301.513	3.086533	0.368181
302.734	3.14859	0.344776
303.954	3.209131	0.334707
305.175	3.267743	0.336742
306.396	3.323734	0.35106
307.616	3.37526	0.379004
308.837	3.418115	0.422471
310.058	3.444168	0.481985
311.278	3.441123	0.552004
312.499	3.398581	0.6144
313.72	3.323384	0.640895
314.941	3.246437	0.615516
316.161	3.199434	0.552293
317.382	3.190699	0.478905
318.603	3.210584	0.413826
319.823	3.246685	0.362833
321.044	3.290425	0.325112
322.265	3.337139	0.297978
323.485	3.384599	0.278837
324.706	3.431877	0.26566
325.927	3.478682	0.25698
327.148	3.525034	0.251762
328.368	3.57108	0.249287
329.589	3.617025	0.249053
330.81	3.663084	0.250719
332.03	3.709488	0.25405
333.251	3.756453	0.258898
334.472	3.804197	0.265174
335.692	3.852931	0.272839
336.913	3.902861	0.281894
338.134	3.954208	0.292379
339.355	4.007187	0.304366
340.575	4.062026	0.317962
341.796	4.118955	0.333307
343.017	4.178234	0.350584
344.237	4.240129	0.370019
345.458	4.304931	0.39189
346.679	4.372945	0.416536
347.899	4.444519	0.444377
349.12	4.520013	0.475922
350.341	4.599825	0.511801
351.562	4.684375	0.55279
352.782	4.774094	0.599848
354.003	4.869441	0.654186
355.224	4.970837	0.717314
356.444	5.078644	0.791147
357.665	5.193061	0.878098
358.886	5.314027	0.981263
360.106	5.440936	1.10455
361.327	5.572277	1.25289
362.548	5.704976	1.432324
363.769	5.833454	1.650025
364.989	5.948123	1.913646
366.21	6.033611	2.229705
367.431	6.067239	2.599952
368.651	6.019765	3.015247
369.872	5.861699	3.448297
371.093	5.577208	3.851497
372.313	5.179607	4.168014
373.534	4.713889	4.354856
374.755	4.23908	4.400699
375.976	3.8052	4.323705
377.196	3.441823	4.155947
378.417	3.160552	3.929355
379.638	2.96256	3.669499
380.858	2.845145	3.395647
382.079	2.805005	3.123224
383.3	2.838789	2.866615
384.52	2.941736	2.640555
385.741	3.105945	2.459683
386.962	3.320207	2.336521
388.183	3.571841	2.280382
389.403	3.848588	2.298609
390.624	4.138605	2.399294
391.845	4.42747	2.593564
393.065	4.692732	2.895642
394.286	4.896303	3.317761
395.507	4.979016	3.855672
396.727	4.87034	4.46312
397.948	4.53018	5.036991
399.169	4.00088	5.45557
400.39	3.358008	5.628028
401.61	2.761641	5.604742
402.831	2.263942	5.4555
404.052	1.872136	5.247523
405.272	1.567807	5.016913
406.493	1.331489	4.787415
407.714	1.14621	4.568016
408.934	0.998468	4.360198
410.155	0.879105	4.169809
411.376	0.782127	3.988358
412.597	0.701971	3.823205
413.817	0.634775	3.667462
415.038	0.578238	3.521025
416.259	0.531049	3.385794
417.479	0.491575	3.255346
418.7	0.457137	3.138469
419.921	0.427604	3.023883
421.141	0.401803	2.917173
422.362	0.379355	2.816098
423.583	0.359998	2.717404
424.804	0.342545	2.628232
426.024	0.327156	2.537198
427.245	0.313393	2.454164
428.466	0.300963	2.372231
429.686	0.28955	2.292438
430.907	0.279235	2.217057
432.128	0.271107	2.139323
433.348	0.262059	2.068888
434.569	0.256921	1.993745
435.79	0.254302	1.924125
437.011	0.252408	1.858044
438.231	0.250209	1.790959
439.452	0.248598	1.730123
440.673	0.246941	1.664703
441.893	0.245001	1.604432
443.114	0.243337	1.541536
444.335	0.242276	1.477965
445.555	0.241745	1.416561
446.776	0.241511	1.348241
447.997	0.243922	1.28418
449.218	0.247731	1.213092
450.438	0.255666	1.141102
451.659	0.268406	1.067373
452.88	0.286295	0.989939
454.1	0.310646	0.915344
455.321	0.340911	0.834639
456.542	0.381598	0.7548
457.762	0.436367	0.673175
458.983	0.510136	0.59862
460.204	0.600986	0.551921
461.425	0.694311	0.523147
462.645	0.790499	0.518151
463.866	0.875058	0.533735
465.087	0.941848	0.561952
466.307	0.990726	0.592318
467.528	1.024891	0.618242
468.749	1.050192	0.641308
469.969	1.062351	0.640276
471.19	1.099154	0.630819
472.411	1.14056	0.639572
473.632	1.164444	0.654182
474.852	1.169907	0.648292
476.073	1.19838	0.601502
477.294	1.281501	0.57562
478.514	1.36543	0.580085
479.735	1.448551	0.600409
480.956	1.530533	0.634154
482.176	1.609943	0.684713
483.397	1.683463	0.756635
484.618	1.724132	0.826864
485.839	1.787788	0.898314
487.059	1.839836	0.997843
488.28	1.872017	1.115173
489.501	1.883455	1.233204
490.721	1.869901	1.352631
491.942	1.855951	1.476334
493.163	1.802778	1.611625
494.383	1.730756	1.766725
495.604	1.627647	1.89518
496.825	1.500731	1.990911
498.046	1.374069	2.064169
499.266	1.234915	2.086876
500.487	1.114853	2.092578
501.708	1.006784	2.073903
502.928	0.915312	2.041641
504.149	0.843818	2.00546
505.37	0.783117	1.963252
506.59	0.736689	1.926382
507.811	0.69604	1.887898
509.032	0.660937	1.851806
510.253	0.630067	1.816299
511.473	0.602584	1.78065
512.694	0.578216	1.745543
513.915	0.549873	1.68796
515.135	0.52538	1.631251
516.356	0.504301	1.575409
517.577	0.486275	1.520385
518.797	0.47101	1.466108
520.018	0.458274	1.412488
521.239	0.447889	1.35943
522.46	0.439726	1.306827
523.68	0.433705	1.254577
524.901	0.429785	1.202566
526.122	0.427976	1.150698
527.342	0.428331	1.098884
528.563	0.430954	1.047052
529.784	0.436	0.995157
531.004	0.443681	0.943202
532.225	0.454261	0.891249
533.446	0.468048	0.839459
534.667	0.485384	0.788102
535.887	0.501481	0.691615
537.108	0.529758	0.600848
538.329	0.570708	0.522136
539.549	0.620787	0.461343
540.77	0.673037	0.421926
541.991	0.719938	0.411522
543.211	0.734724	0.425705
544.432	0.743551	0.437986
545.653	0.740045	0.443476
546.874	0.728076	0.437724
548.094	0.715438	0.416885
549.315	0.708166	0.378903
550.536	0.71882	0.333918
551.756	0.745685	0.286898
552.977	0.784519	0.251125
554.198	0.828421	0.22457
555.418	0.875356	0.204485
556.639	0.929773	0.200533
557.86	0.963336	0.213649
559.081	0.985222	0.216944
560.301	1.005805	0.212779
561.522	1.030327	0.204065
562.743	1.060351	0.195087
563.963	1.094953	0.1918
565.184	1.123551	0.196525
566.405	1.145794	0.194506
567.625	1.173911	0.188543
568.846	1.205122	0.185203
570.067	1.233823	0.184656
571.288	1.262668	0.172369
572.508	1.315453	0.167258
573.729	1.359311	0.185093
574.95	1.38675	0.193418
576.17	1.421866	0.18725
577.391	1.481586	0.18307
578.612	1.541448	0.211932
579.832	1.58507	0.23325
581.053	1.632133	0.255713
582.274	1.687437	0.278334
583.495	1.747203	0.306882
584.715	1.811543	0.345613
585.936	1.893901	0.389909
587.157	1.955712	0.478328
588.377	2.019438	0.577976
589.598	2.072172	0.64419
590.819	2.125708	0.773239
592.039	2.178154	0.877853
593.26	2.190761	1.003197
594.481	2.165042	1.151444
595.702	2.053447	1.322504
596.922	1.924499	1.511763
598.143	1.764526	1.707944
599.364	1.559733	1.892926
600.584	1.387049	2.046046
601.805	1.198292	2.151692
603.026	1.059092	2.204995
604.246	0.938205	2.211453
605.467	0.83888	2.182103
606.688	0.767299	2.1286
607.909	0.676691	2.06056
609.129	0.621137	1.98487
610.35	0.590774	1.906077
611.571	0.563722	1.826983
612.791	0.537565	1.749216
614.012	0.5103	1.673646
615.233	0.491436	1.600681
616.453	0.471637	1.530439
617.674	0.455607	1.462879
618.895	0.440882	1.397844
620.116	0.428787	1.335154
621.336	0.408895	1.27459
622.557	0.392086	1.215931
623.778	0.377991	1.158954
624.998	0.366324	1.103445
626.219	0.356868	1.049196
627.44	0.349472	0.99601
628.66	0.344039	0.943713
629.881	0.340525	0.89212
631.102	0.338941	0.841082
632.323	0.339352	0.790467
633.543	0.341883	0.740172
634.764	0.346723	0.690146
635.985	0.354121	0.640405
637.205	0.364384	0.591075
638.426	0.377839	0.542435
639.647	0.394779	0.494948
640.867	0.415347	0.449286
642.088	0.439417	0.406251
643.309	0.466513	0.366625
644.53	0.495851	0.330972
645.75	0.526505	0.299504
646.971	0.5576	0.272095
648.192	0.588447	0.248382
649.412	0.618569	0.227899
650.633	0.647686	0.210166
651.854	0.675648	0.194747
653.074	0.702403	0.181266
654.295	0.727957	0.169408
655.516	0.752346	0.158916
656.737	0.775626	0.149577
657.957	0.797862	0.141219
659.178	0.819119	0.1337
660.399	0.83946	0.126905
661.619	0.858951	0.120736
662.84	0.87765	0.115112
664.061	0.89561	0.109967
665.281	0.912882	0.105244
666.502	0.929513	0.100893
667.723	0.945545	0.096874
668.944	0.961017	0.093151
670.164	0.975964	0.089694
671.385	0.99042	0.086476
672.606	1.004416	0.083473
673.826	1.017979	0.080667
675.047	1.031134	0.078038
676.268	1.043905	0.075571
677.488	1.056315	0.073252
678.709	1.068382	0.071069
679.93	1.080126	0.069011
681.151	1.091563	0.067067
682.371	1.102712	0.065229
683.592	1.113585	0.06349
684.813	1.124197	0.061841
686.033	1.13456	0.060276
687.254	1.144688	0.058789
688.475	1.154592	0.057375
689.695	1.164281	0.05603
690.916	1.173766	0.054747
692.137	1.183056	0.053525
693.358	1.19216	0.052358
694.578	1.201087	0.051243
695.799	1.209844	0.050178
697.02	1.218439	0.049158
698.24	1.226878	0.048183
699.461	1.235168	0.047248
700.682	1.243315	0.046352
701.902	1.251325	0.045493
703.123	1.259204	0.044669
704.344	1.266958	0.043877
705.565	1.27459	0.043117
706.785	1.282106	0.042386
708.006	1.289511	0.041684
709.227	1.296809	0.041008
710.447	1.304003	0.040358
711.668	1.3111	0.039732
712.889	1.318099	0.03913
714.109	1.325008	0.038549
715.33	1.331828	0.03799
716.551	1.338564	0.03745
717.772	1.345219	0.036931
718.992	1.351794	0.036429
720.213	1.358294	0.035946
721.434	1.364722	0.035479
722.654	1.371078	0.035029
723.875	1.377368	0.034595
725.096	1.383593	0.034176
726.316	1.389756	0.033771
727.537	1.395859	0.033381
728.758	1.401903	0.033004
729.979	1.407892	0.03264
731.199	1.413828	0.032288
732.42	1.419712	0.031949
733.641	1.425547	0.031622
734.861	1.431334	0.031306
736.082	1.437076	0.031001
737.303	1.442775	0.030706
738.523	1.448431	0.030422
739.744	1.454047	0.030149
740.965	1.459625	0.029885
742.186	1.465165	0.02963
743.406	1.470672	0.029384
744.627	1.476143	0.029148
745.848	1.481583	0.028921
747.068	1.486992	0.028701
748.289	1.492372	0.028491
749.51	1.497725	0.028288
750.73	1.503051	0.028094
751.951	1.508353	0.027907
753.172	1.513631	0.027728
754.393	1.518886	0.027556
755.613	1.524122	0.027392
756.834	1.529338	0.027234
758.055	1.534535	0.027084
759.275	1.539716	0.026941
760.496	1.544882	0.026805
761.717	1.550033	0.026675
762.937	1.555171	0.026552
764.158	1.560298	0.026436
765.379	1.565414	0.026326
766.6	1.570521	0.026223
767.82	1.575619	0.026126
769.041	1.580712	0.026036
770.262	1.585798	0.025951
771.482	1.590881	0.025873
772.703	1.59596	0.025801
773.924	1.601038	0.025736
775.144	1.606116	0.025676
776.365	1.611193	0.025623
777.586	1.616274	0.025576
778.807	1.621357	0.025535
780.027	1.626446	0.025501
781.248	1.63154	0.025473
782.469	1.636643	0.025451
783.689	1.641753	0.025436
784.91	1.646875	0.025427
786.131	1.652008	0.025424
787.351	1.657154	0.025429
788.572	1.662316	0.02544
789.793	1.667493	0.025458
791.014	1.67269	0.025484
792.234	1.677906	0.025516
793.455	1.683143	0.025557
794.676	1.688405	0.025605
795.896	1.693692	0.025661
797.117	1.699006	0.025725
798.338	1.70435	0.025799
799.558	1.709726	0.025881
800.779	1.715138	0.025974
802	1.720586	0.026076
803.221	1.726075	0.02619
804.441	1.731607	0.026315
805.662	1.737186	0.026453
806.883	1.742815	0.026604
808.103	1.748499	0.02677
809.324	1.754241	0.026953
810.545	1.760047	0.027154
811.765	1.765922	0.027374
812.986	1.771873	0.027618
814.207	1.777906	0.027887
815.428	1.78403	0.028186
816.648	1.790254	0.028519
817.869	1.796589	0.028892
819.09	1.803047	0.029312
820.31	1.809644	0.02979
821.531	1.816397	0.030338
822.752	1.823328	0.030973
823.972	1.830464	0.031716
825.193	1.837836	0.032599
826.414	1.845483	0.033664
827.635	1.853455	0.034971
828.855	1.861809	0.036609
830.076	1.870619	0.03871
831.297	1.879965	0.041476
832.517	1.889925	0.045226
833.738	1.900533	0.050476
834.959	1.911657	0.058068
836.179	1.922657	0.069339
837.4	1.931506	0.086106
838.621	1.933108	0.109343
839.842	1.91918	0.133877
841.062	1.889207	0.143398
842.283	1.862493	0.128763
843.504	1.853675	0.104181
844.724	1.858241	0.083309
845.945	1.868432	0.068858
847.166	1.880192	0.059356
848.386	1.892006	0.053101
849.607	1.903419	0.048918
850.828	1.914362	0.046075
852.049	1.924883	0.044124
853.269	1.935063	0.042784
854.49	1.944979	0.041877
855.711	1.954702	0.041285
856.931	1.964287	0.040928
858.152	1.973783	0.040754
859.373	1.983229	0.040724
860.593	1.992658	0.04081
861.814	2.002098	0.040993
863.035	2.011573	0.041258
864.256	2.021103	0.041596
865.476	2.030708	0.041997
866.697	2.040403	0.042456
867.918	2.050204	0.042968
869.138	2.060124	0.043531
870.359	2.070177	0.044142
871.58	2.080376	0.044801
872.8	2.090732	0.045506
874.021	2.101258	0.046256
875.242	2.111966	0.047053
876.463	2.122868	0.047897
877.683	2.133976	0.048788
878.904	2.145301	0.049728
880.125	2.151643	0.050719
881.345	2.158267	0.051762
882.566	2.165225	0.05286
883.787	2.17257	0.054015
885.007	2.179984	0.055229
886.228	2.186376	0.056507
887.449	2.193733	0.057851
888.67	2.202365	0.059264
889.89	2.210529	0.060753
891.111	2.218224	0.06232
892.332	2.226833	0.063971
893.552	2.237862	0.065711
894.773	2.250901	0.067548
895.994	2.264006	0.069486
897.214	2.275169	0.071534
898.435	2.284949	0.0737
899.656	2.294586	0.075993
900.877	2.303203	0.078422
902.097	2.319369	0.081
903.318	2.332628	0.083738
904.539	2.344508	0.086649
905.759	2.356247	0.08975
906.98	2.368096	0.093058
908.201	2.378379	0.096591
909.421	2.39736	0.100372
910.642	2.418797	0.104425
911.863	2.439521	0.108778
913.084	2.458063	0.113461
914.304	2.474905	0.118513
915.525	2.492807	0.123975
916.746	2.517841	0.129893
917.966	2.542628	0.136324
919.187	2.567278	0.143333
920.408	2.590152	0.150995
921.628	2.610934	0.159399
922.849	2.634068	0.16865
924.07	2.665297	0.178876
925.291	2.702207	0.190227
926.511	2.737027	0.202886
927.732	2.768579	0.217076
928.953	2.799415	0.233073
930.173	2.833055	0.251219
931.394	2.878521	0.271944
932.615	2.925115	0.295797
933.835	2.97326	0.323474
935.056	3.020012	0.3559
936.277	3.068462	0.394285
937.498	3.137252	0.440259
938.718	3.205571	0.496045
939.939	3.27612	0.564733
941.16	3.356014	0.650684
942.38	3.467626	0.760152
943.601	3.599115	0.902182
944.822	3.733495	1.089886
946.042	3.913713	1.208894
947.263	4.115898	1.368566
948.484	4.343609	1.575397
949.705	4.560512	1.835684
950.925	4.705418	2.15132
952.146	4.689553	2.541836
953.367	4.145629	2.922877
954.587	3.430263	3.032679
955.808	2.75949	2.927548
957.029	2.271579	2.567165
958.249	2.05588	2.117426
959.47	2.044426	1.693762
960.691	2.207507	1.372437
961.912	2.466424	1.152125
963.132	2.791294	1.060761
964.353	3.124446	1.097106
965.574	3.437055	1.245029
966.794	3.744893	1.486663
968.015	3.936666	1.896716
969.236	4.030817	2.387759
970.456	3.923742	2.916528
971.677	3.637578	3.410403
972.898	3.216742	3.779183
974.119	2.680151	3.95315
975.339	2.238197	3.949249
976.56	1.858449	3.846349
977.781	1.553577	3.717665
979.001	1.312269	3.570315
980.222	1.123689	3.407936
981.443	0.983904	3.279709
982.663	0.873135	3.144258
983.884	0.784197	3.039185
985.105	0.70819	2.939593
986.326	0.643857	2.850449
987.546	0.589709	2.775571
988.767	0.540016	2.705393
989.988	0.493446	2.64722
991.208	0.447124	2.589087
992.429	0.413656	2.512397
993.65	0.384537	2.439934
994.87	0.359036	2.371345
996.091	0.336565	2.306293
997.312	0.316658	2.244488
998.533	0.298928	2.185632
999.753	0.283062	2.12948
1000.974	0.268805	2.075803
1002.195	0.255941	2.024396
1003.415	0.244292	1.975074
1004.636	0.233709	1.92767
1005.857	0.224065	1.882033
1007.077	0.215252	1.838029
1008.298	0.207177	1.79553
1009.519	0.199762	1.754426
1010.74	0.192938	1.714615
1011.96	0.186648	1.676004
1013.181	0.180839	1.638508
1014.402	0.175467	1.602048
1015.622	0.170493	1.566553
1016.843	0.165882	1.531954
1018.064	0.161605	1.498197
1019.284	0.157635	1.465217
1020.505	0.153948	1.432964
1021.726	0.150523	1.401389
1022.947	0.147343	1.370446
1024.167	0.144391	1.340091
1025.388	0.141652	1.310286
1026.609	0.139115	1.280986
1027.829	0.136767	1.252162
1029.05	0.134599	1.223771
1030.271	0.132603	1.195791
1031.491	0.130771	1.168177
1032.712	0.129098	1.140911
1033.933	0.127576	1.113957
1035.154	0.126204	1.08728
1036.374	0.124977	1.060862
1037.595	0.123893	1.034668
1038.816	0.12295	1.008676
1040.036	0.12215	0.982851
1041.257	0.121492	0.957177
1042.478	0.120978	0.931613
1043.698	0.120612	0.906142
1044.919	0.120398	0.880732
1046.14	0.120342	0.855345
1047.361	0.120453	0.829961
1048.581	0.120739	0.80454
1049.802	0.121215	0.779058
1051.023	0.121895	0.753467
1052.243	0.122797	0.72774
1053.464	0.123947	0.701826
1054.685	0.125371	0.67569
1055.905	0.127107	0.64928
1057.126	0.129199	0.622536
1058.347	0.131702	0.595413
1059.568	0.13469	0.56784
1060.788	0.13825	0.539762
1062.009	0.142501	0.511098
1063.23	0.147593	0.481793
1064.45	0.153728	0.451774
1065.671	0.161162	0.421017
1066.892	0.170233	0.389533
1068.112	0.181367	0.357426
1069.333	0.195051	0.324999
1070.554	0.21177	0.292805
1071.775	0.2318	0.261738
1072.995	0.254988	0.232872
1074.216	0.280596	0.207172
1075.437	0.307542	0.185097
1076.657	0.334772	0.166554
1077.878	0.361509	0.151111
1079.099	0.387315	0.138219
1080.319	0.411982	0.127373
1081.54	0.435458	0.118149
1082.761	0.457756	0.110222
1083.982	0.478942	0.103334
1085.202	0.499081	0.097291
1086.423	0.518255	0.091942
1087.644	0.536541	0.087168
1088.864	0.554003	0.082878
1090.085	0.570707	0.078998
1091.306	0.58671	0.07547
1092.526	0.602066	0.072245
1093.747	0.616817	0.069283
1094.968	0.631011	0.066552
1096.189	0.644681	0.064025
1097.409	0.657864	0.061678
1098.63	0.670593	0.059491
1099.851	0.682893	0.057449
1101.071	0.694792	0.055536
1102.292	0.70631	0.053741
1103.513	0.717473	0.052051
1104.733	0.728296	0.050459
1105.954	0.738802	0.048955
1107.175	0.749003	0.047532
1108.396	0.758917	0.046183
1109.616	0.768559	0.044902
1110.837	0.77794	0.043685
1112.058	0.787074	0.042527
1113.278	0.79597	0.041423
1114.499	0.804642	0.04037
1115.72	0.813096	0.039364
1116.94	0.821345	0.038401
1118.161	0.829395	0.03748
1119.382	0.837255	0.036598
1120.603	0.844934	0.035752
1121.823	0.852438	0.034939
1123.044	0.859774	0.034159
1124.265	0.866948	0.033409
1125.485	0.873967	0.032687
1126.706	0.880835	0.031992
1127.927	0.887558	0.031322
1129.147	0.894144	0.030676
1130.368	0.900594	0.030054
1131.589	0.906915	0.029452
1132.81	0.913109	0.028871
1134.03	0.919184	0.02831
1135.251	0.92514	0.027767
1136.472	0.930984	0.027242
1137.692	0.936717	0.026734
1138.913	0.942343	0.026242
1140.134	0.947868	0.025765
1141.354	0.953291	0.025302
1142.575	0.958619	0.024854
1143.796	0.963851	0.024419
1145.017	0.968993	0.023997
1146.237	0.974046	0.023587
1147.458	0.979013	0.023189
1148.679	0.983895	0.022802
1149.899	0.988697	0.022426
1151.12	0.99342	0.02206
1152.341	0.998065	0.021704
1153.561	1.002636	0.021358
1154.782	1.007134	0.021021
1156.003	1.011561	0.020693
1157.224	1.015918	0.020374
1158.444	1.020209	0.020062
1159.665	1.024433	0.019759
1160.886	1.028593	0.019463
1162.106	1.032691	0.019175
1163.327	1.036728	0.018893
1164.548	1.040707	0.018619
1165.768	1.044626	0.018351
1166.989	1.04849	0.018089
1168.21	1.052297	0.017834
1169.431	1.056051	0.017585
1170.651	1.059752	0.017341
1171.872	1.063402	0.017103
1173.093	1.067002	0.01687
1174.313	1.070552	0.016643
1175.534	1.074054	0.016421
1176.755	1.077509	0.016203
1177.975	1.080918	0.01599
1179.196	1.084281	0.015782
1180.417	1.087601	0.015579
1181.638	1.090878	0.015379
1182.858	1.094113	0.015184
1184.079	1.097306	0.014993
1185.3	1.100459	0.014806
1186.52	1.103572	0.014623
1187.741	1.106646	0.014444
1188.962	1.109683	0.014268
1190.182	1.112681	0.014095
1191.403	1.115643	0.013926
1192.624	1.11857	0.013761
1193.845	1.121462	0.013598
1195.065	1.124319	0.013439
1196.286	1.127142	0.013283
1197.507	1.129932	0.01313
1198.727	1.13269	0.012979
1199.948	1.135416	0.012832
1201.169	1.13811	0.012687
1202.389	1.140773	0.012545
1203.61	1.143407	0.012405
1204.831	1.146011	0.012269
1206.052	1.148586	0.012134
1207.272	1.151132	0.012002
1208.493	1.153651	0.011872
1209.714	1.156142	0.011745
1210.934	1.158606	0.01162
1212.155	1.161043	0.011497
1213.376	1.163453	0.011376
1214.596	1.165839	0.011257
1215.817	1.168199	0.01114
1217.038	1.170535	0.011025
1218.259	1.172846	0.010912
1219.479	1.175133	0.010801
1220.7	1.177397	0.010692
1221.921	1.179637	0.010585
1223.141	1.181854	0.010479
1224.362	1.184049	0.010375
1225.583	1.186223	0.010273
1226.803	1.188374	0.010173
1228.024	1.190505	0.010074
1229.245	1.192613	0.009976
1230.466	1.194702	0.00988
1231.686	1.19677	0.009786
1232.907	1.198818	0.009693
1234.128	1.200846	0.009601
1235.348	1.202855	0.009511
1236.569	1.204845	0.009423
1237.79	1.206815	0.009335
1239.01	1.208768	0.009249
1240.231	1.210702	0.009165
1241.452	1.212618	0.009081
1242.673	1.214517	0.008999
1243.893	1.216397	0.008918
1245.114	1.218261	0.008838
1246.335	1.220108	0.008759
1247.555	1.221938	0.008682
1248.776	1.223752	0.008605
1249.997	1.225549	0.00853
1251.217	1.22733	0.008455
1252.438	1.229096	0.008382
1253.659	1.230846	0.00831
1254.88	1.232581	0.008239
1256.1	1.2343	0.008168
1257.321	1.236005	0.008099
1258.542	1.237695	0.008031
1259.762	1.239371	0.007963
1260.983	1.241032	0.007897
1262.204	1.242679	0.007831
1263.424	1.244313	0.007767
1264.645	1.245932	0.007703
1265.866	1.247538	0.00764
1267.087	1.249131	0.007578
1268.307	1.25071	0.007517
1269.528	1.252277	0.007456
1270.749	1.25383	0.007396
1271.969	1.255371	0.007337
1273.19	1.2569	0.007279
1274.411	1.258416	0.007222
1275.631	1.25992	0.007165
1276.852	1.261411	0.007109
1278.073	1.262892	0.007054
1279.294	1.26436	0.006999
1280.514	1.265817	0.006945
1281.735	1.267262	0.006892
1282.956	1.268696	0.006839
1284.176	1.270119	0.006787
1285.397	1.271531	0.006736
1286.618	1.272931	0.006685
1287.838	1.274322	0.006635
1289.059	1.275701	0.006585
1290.28	1.27707	0.006537
1291.501	1.278429	0.006488
1292.721	1.279778	0.00644
1293.942	1.281116	0.006393
1295.163	1.282445	0.006347
1296.383	1.283763	0.006301
1297.604	1.285072	0.006255
1298.825	1.286371	0.00621
1300.045	1.287661	0.006165
1301.266	1.288941	0.006121
1302.487	1.290212	0.006078
1303.708	1.291474	0.006035
1304.928	1.292726	0.005993
1306.149	1.29397	0.00595
1307.37	1.295205	0.005909
1308.59	1.29643	0.005868
1309.811	1.297648	0.005827
1311.032	1.298856	0.005787
1312.252	1.300057	0.005747
1313.473	1.301248	0.005708
1314.694	1.302432	0.005669
1315.915	1.303607	0.005631
1317.135	1.304774	0.005593
1318.356	1.305933	0.005555
1319.577	1.307084	0.005518
1320.797	1.308228	0.005481
1322.018	1.309363	0.005445
1323.239	1.310491	0.005408
1324.459	1.311611	0.005373
1325.68	1.312724	0.005338
1326.901	1.313829	0.005303
1328.122	1.314927	0.005268
1329.342	1.316017	0.005234
1330.563	1.3171	0.0052
1331.784	1.318176	0.005167
1333.004	1.319245	0.005133
1334.225	1.320307	0.005101
1335.446	1.321363	0.005068
1336.666	1.322411	0.005036
1337.887	1.323452	0.005004
1339.108	1.324487	0.004973
1340.329	1.325515	0.004941
1341.549	1.326537	0.004911
1342.77	1.327552	0.00488
1343.991	1.32856	0.00485
1345.211	1.329563	0.00482
1346.432	1.330558	0.00479
1347.653	1.331548	0.004761
1348.873	1.332531	0.004732
1350.094	1.333509	0.004703
1351.315	1.33448	0.004674
1352.536	1.335445	0.004646
1353.756	1.336404	0.004618
1354.977	1.337358	0.00459
1356.198	1.338305	0.004563
1357.418	1.339247	0.004536
1358.639	1.340183	0.004509
1359.86	1.341113	0.004482
1361.08	1.342038	0.004455
1362.301	1.342957	0.004429
1363.522	1.34387	0.004403
1364.743	1.344778	0.004378
1365.963	1.345681	0.004352
1367.184	1.346578	0.004327
1368.405	1.347471	0.004302
1369.625	1.348357	0.004277
1370.846	1.349239	0.004253
1372.067	1.350115	0.004228
1373.287	1.350986	0.004204
1374.508	1.351853	0.00418
1375.729	1.352714	0.004157
1376.95	1.35357	0.004133
1378.17	1.354421	0.00411
1379.391	1.355267	0.004087
1380.612	1.356109	0.004064
1381.832	1.356945	0.004041
1383.053	1.357777	0.004019
1384.274	1.358605	0.003996
1385.494	1.359427	0.003975
1386.715	1.360245	0.003953
1387.936	1.361058	0.003931
1389.157	1.361867	0.003909
1390.377	1.362671	0.003888
1391.598	1.363471	0.003867
1392.819	1.364266	0.003846
1394.039	1.365057	0.003825
1395.26	1.365843	0.003805
1396.481	1.366626	0.003784
1397.701	1.367404	0.003764
1398.922	1.368177	0.003744
1400.143	1.368947	0.003724
1401.364	1.369712	0.003704
1402.584	1.370473	0.003685
1403.805	1.37123	0.003665
1405.026	1.371983	0.003646
1406.246	1.372732	0.003627
1407.467	1.373477	0.003608
1408.688	1.374218	0.003589
1409.908	1.374955	0.003571
1411.129	1.375688	0.003552
1412.35	1.376417	0.003534
1413.571	1.377142	0.003516
1414.791	1.377864	0.003497
1416.012	1.378581	0.00348
1417.233	1.379295	0.003462
1418.453	1.380006	0.003444
1419.674	1.380712	0.003427
1420.895	1.381415	0.003409
1422.115	1.382114	0.003392
1423.336	1.38281	0.003375
1424.557	1.383502	0.003358
1425.778	1.384191	0.003341
1426.998	1.384876	0.003325
1428.219	1.385557	0.003308
1429.44	1.386235	0.003292
1430.66	1.38691	0.003275
1431.881	1.387581	0.003259
1433.102	1.388249	0.003243
1434.322	1.388914	0.003227
1435.543	1.389575	0.003212
1436.764	1.390233	0.003196
1437.985	1.390887	0.00318
1439.205	1.391539	0.003165
1440.426	1.392187	0.00315
1441.647	1.392832	0.003135
1442.867	1.393473	0.003119
1444.088	1.394112	0.003104
1445.309	1.394747	0.00309
1446.529	1.39538	0.003075
1447.75	1.396009	0.00306
1448.971	1.396635	0.003046
1450.192	1.397258	0.003031
1451.412	1.397878	0.003017
1452.633	1.398496	0.003003
1453.854	1.39911	0.002989
1455.074	1.399721	0.002974
1456.295	1.400329	0.002961
1457.516	1.400935	0.002947
1458.736	1.401537	0.002933
1459.957	1.402137	0.002919
1461.178	1.402734	0.002906
1462.399	1.403328	0.002893
1463.619	1.403919	0.002879
1464.84	1.404507	0.002866
1466.061	1.405093	0.002853
1467.281	1.405676	0.00284
1468.502	1.406256	0.002827
1469.723	1.406833	0.002814
1470.943	1.407408	0.002801
1472.164	1.40798	0.002789
1473.385	1.40855	0.002776
1474.606	1.409117	0.002763
1475.826	1.409681	0.002751
1477.047	1.410243	0.002739
1478.268	1.410802	0.002726
1479.488	1.411358	0.002714
1480.709	1.411912	0.002702
1481.93	1.412464	0.00269
1483.15	1.413013	0.002678
1484.371	1.413559	0.002667
1485.592	1.414103	0.002655
1486.813	1.414645	0.002643
1488.033	1.415184	0.002632
1489.254	1.415721	0.00262
1490.475	1.416255	0.002609
1491.695	1.416787	0.002597
1492.916	1.417317	0.002586
1494.137	1.417844	0.002575
1495.357	1.418369	0.002564
1496.578	1.418892	0.002553
1497.799	1.419412	0.002542
1499.02	1.41993	0.002531
1500.24	1.420446	0.00252
1501.461	1.420959	0.002509
1502.682	1.42147	0.002498
1503.902	1.421979	0.002488
1505.123	1.422486	0.002477
1506.344	1.422991	0.002467
1507.564	1.423493	0.002456
1508.785	1.423994	0.002446
1510.006	1.424492	0.002436
1511.227	1.424988	0.002425
1512.447	1.425482	0.002415
1513.668	1.425973	0.002405
1514.889	1.426463	0.002395
1516.109	1.42695	0.002385
1517.33	1.427436	0.002375
1518.551	1.427919	0.002365
1519.771	1.428401	0.002356
1520.992	1.42888	0.002346
1522.213	1.429358	0.002336
1523.434	1.429833	0.002327
1524.654	1.430306	0.002317
1525.875	1.430778	0.002308
1527.096	1.431247	0.002298
1528.316	1.431714	0.002289
1529.537	1.43218	0.00228
1530.758	1.432643	0.00227
1531.978	1.433105	0.002261
1533.199	1.433565	0.002252
1534.42	1.434023	0.002243
1535.641	1.434479	0.002234
1536.861	1.434933	0.002225
1538.082	1.435385	0.002216
1539.303	1.435835	0.002207
1540.523	1.436284	0.002199
1541.744	1.436731	0.00219
1542.965	1.437176	0.002181
1544.185	1.437619	0.002172
1545.406	1.43806	0.002164
1546.627	1.4385	0.002155
1547.848	1.438937	0.002147
1549.068	1.439373	0.002138
1550.289	1.439808	0.00213
1551.51	1.44024	0.002122
1552.73	1.440671	0.002113
1553.951	1.4411	0.002105
1555.172	1.441527	0.002097
1556.392	1.441953	0.002089
1557.613	1.442377	0.002081
1558.834	1.4428	0.002073
1560.055	1.44322	0.002065
1561.275	1.443639	0.002057
1562.496	1.444057	0.002049
1563.717	1.444472	0.002041
1564.937	1.444886	0.002033
1566.158	1.445299	0.002025
1567.379	1.44571	0.002018
1568.599	1.446119	0.00201
1569.82	1.446527	0.002002
1571.041	1.446933	0.001995
1572.262	1.447337	0.001987
1573.482	1.44774	0.00198
1574.703	1.448142	0.001972
1575.924	1.448542	0.001965
1577.144	1.44894	0.001957
1578.365	1.449337	0.00195
1579.586	1.449732	0.001943
1580.806	1.450126	0.001936
1582.027	1.450518	0.001928
1583.248	1.450909	0.001921
1584.469	1.451298	0.001914
1585.689	1.451686	0.001907
1586.91	1.452073	0.0019
1588.131	1.452458	0.001893
1589.351	1.452841	0.001886
1590.572	1.453223	0.001879
1591.793	1.453604	0.001872
1593.013	1.453983	0.001865
1594.234	1.454361	0.001858
1595.455	1.454737	0.001852
1596.676	1.455112	0.001845
1597.896	1.455486	0.001838
1599.117	1.455858	0.001831
1600.338	1.456229	0.001825
1601.558	1.456598	0.001818
1602.779	1.456966	0.001812
1604	1.457333	0.001805
1605.22	1.457698	0.001799
1606.441	1.458062	0.001792
1607.662	1.458425	0.001786
1608.883	1.458786	0.00178
1610.103	1.459147	0.001773
1611.324	1.459505	0.001767
1612.545	1.459863	0.001761
1613.765	1.460219	0.001754
1614.986	1.460574	0.001748
1616.207	1.460927	0.001742
1617.427	1.46128	0.001736
1618.648	1.461631	0.00173
1619.869	1.461981	0.001723
1621.09	1.462329	0.001717
1622.31	1.462676	0.001711
1623.531	1.463022	0.001705
1624.752	1.463367	0.0017
1625.972	1.463711	0.001693
1627.193	1.464053	0.001688
1628.414	1.464394	0.001682
1629.634	1.464734	0.001676
1630.855	1.465073	0.00167
1632.076	1.46541	0.001664
1633.297	1.465747	0.001659
1634.517	1.466082	0.001653
1635.738	1.466416	0.001647
1636.959	1.466749	0.001642
1638.179	1.46708	0.001636
1639.4	1.467411	0.00163
1640.621	1.46774	0.001625
1641.841	1.468068	0.001619
1643.062	1.468395	0.001614
1644.283	1.468721	0.001608
1645.504	1.469046	0.001603
1646.724	1.46937	0.001597
1647.945	1.469692	0.001592
1649.166	1.470014	0.001586
1650.386	1.470334	0.001581
1651.607	1.470653	0.001576
1652.828	1.470971	0.00157
1654.048	1.471288	0.001565
1655.269	1.471604	0.00156
1656.49	1.471919	0.001555
1657.711	1.472233	0.00155
1658.931	1.472546	0.001544
1660.152	1.472857	0.001539
1661.373	1.473168	0.001534
1662.593	1.473478	0.001529
1663.814	1.473786	0.001524
1665.035	1.474093	0.001519
1666.255	1.4744	0.001514
1667.476	1.474705	0.001509
1668.697	1.47501	0.001504
1669.918	1.475313	0.001499
1671.138	1.475616	0.001494
1672.359	1.475917	0.001489
1673.58	1.476217	0.001484
1674.8	1.476516	0.001479
1676.021	1.476815	0.001475
1677.242	1.477112	0.00147
1678.462	1.477409	0.001465
1679.683	1.477704	0.00146
1680.904	1.477998	0.001456
1682.125	1.478292	0.001451
1683.345	1.478584	0.001446
1684.566	1.478876	0.001442
1685.787	1.479166	0.001437
1687.007	1.479456	0.001432
1688.228	1.479744	0.001428
1689.449	1.480032	0.001423
1690.669	1.480319	0.001419
1691.89	1.480605	0.001414
1693.111	1.48089	0.00141
1694.332	1.481174	0.001405
1695.552	1.481457	0.001401
1696.773	1.481739	0.001396
1697.994	1.48202	0.001392
1699.214	1.4823	0.001387
1700.435	1.48258	0.001383
1701.656	1.482858	0.001379
1702.876	1.483136	0.001374
1704.097	1.483413	0.00137
1705.318	1.483689	0.001366
1706.539	1.483963	0.001361
1707.759	1.484238	0.001357
1708.98	1.484511	0.001353
1710.201	1.484783	0.001349
1711.421	1.485055	0.001344
1712.642	1.485325	0.00134
1713.863	1.485595	0.001336
1715.083	1.485864	0.001332
1716.304	1.486132	0.001328
1717.525	1.486399	0.001324
1718.746	1.486666	0.00132
1719.966	1.486931	0.001316
1721.187	1.487196	0.001311
1722.408	1.48746	0.001307
1723.628	1.487723	0.001303
1724.849	1.487985	0.001299
1726.07	1.488246	0.001295
1727.29	1.488507	0.001291
1728.511	1.488767	0.001288
1729.732	1.489026	0.001284
1730.953	1.489284	0.00128
1732.173	1.489541	0.001276
1733.394	1.489798	0.001272
1734.615	1.490054	0.001268
1735.835	1.490309	0.001264
1737.056	1.490563	0.00126
1738.277	1.490816	0.001257
1739.497	1.491069	0.001253
1740.718	1.491321	0.001249
1741.939	1.491572	0.001245
1743.16	1.491822	0.001242
1744.38	1.492072	0.001238
1745.601	1.49232	0.001234
1746.822	1.492568	0.00123
1748.042	1.492816	0.001227
1749.263	1.493062	0.001223
1750.484	1.493308	0.001219
1751.704	1.493553	0.001216
1752.925	1.493797	0.001212
1754.146	1.494041	0.001209
1755.367	1.494284	0.001205
1756.587	1.494526	0.001201
1757.808	1.494767	0.001198
1759.029	1.495008	0.001194
1760.249	1.495248	0.001191
1761.47	1.495487	0.001187
1762.691	1.495726	0.001184
1763.911	1.495963	0.00118
1765.132	1.4962	0.001177
1766.353	1.496437	0.001173
1767.574	1.496672	0.00117
1768.794	1.496907	0.001167
1770.015	1.497142	0.001163
1771.236	1.497375	0.00116
1772.456	1.497608	0.001156
1773.677	1.49784	0.001153
1774.898	1.498072	0.00115
1776.118	1.498303	0.001146
1777.339	1.498533	0.001143
1778.56	1.498762	0.00114
1779.781	1.498991	0.001137
1781.001	1.499219	0.001133
1782.222	1.499447	0.00113
1783.443	1.499673	0.001127
1784.663	1.4999	0.001124
1785.884	1.500125	0.00112
1787.105	1.50035	0.001117
1788.325	1.500574	0.001114
1789.546	1.500798	0.001111
1790.767	1.50102	0.001108
1791.988	1.501243	0.001104
1793.208	1.501464	0.001101
1794.429	1.501685	0.001098
1795.65	1.501905	0.001095
1796.87	1.502125	0.001092
1798.091	1.502344	0.001089
1799.312	1.502563	0.001086
1800.532	1.50278	0.001083
1801.753	1.502998	0.00108
1802.974	1.503214	0.001077
1804.195	1.50343	0.001074
1805.415	1.503645	0.001071
1806.636	1.50386	0.001068
1807.857	1.504074	0.001065
1809.077	1.504287	0.001062
1810.298	1.5045	0.001059
1811.519	1.504713	0.001056
1812.739	1.504924	0.001053
1813.96	1.505135	0.00105
1815.181	1.505346	0.001047
1816.402	1.505556	0.001044
1817.622	1.505765	0.001041
1818.843	1.505974	0.001038
1820.064	1.506182	0.001035
1821.284	1.506389	0.001033
1822.505	1.506596	0.00103
1823.726	1.506803	0.001027
1824.946	1.507008	0.001024
1826.167	1.507214	0.001021
1827.388	1.507418	0.001018
1828.609	1.507622	0.001016
1829.829	1.507826	0.001013
1831.05	1.508029	0.00101
1832.271	1.508231	0.001007
1833.491	1.508433	0.001005
1834.712	1.508634	0.001002
1835.933	1.508835	0.000999
1837.153	1.509035	0.000997
1838.374	1.509235	0.000994
1839.595	1.509434	0.000991
1840.816	1.509632	0.000988
1842.036	1.50983	0.000986
1843.257	1.510028	0.000983
1844.478	1.510224	0.00098
1845.698	1.510421	0.000978
1846.919	1.510616	0.000975
1848.14	1.510812	0.000973
1849.36	1.511006	0.00097
1850.581	1.511201	0.000967
1851.802	1.511394	0.000965
1853.023	1.511587	0.000962
1854.243	1.51178	0.00096
1855.464	1.511972	0.000957
1856.685	1.512164	0.000954
1857.905	1.512355	0.000952
1859.126	1.512545	0.000949
1860.347	1.512735	0.000947
1861.567	1.512925	0.000944
1862.788	1.513114	0.000942
1864.009	1.513302	0.000939
1865.23	1.51349	0.000937
1866.45	1.513678	0.000935
1867.671	1.513865	0.000932
1868.892	1.514051	0.00093
1870.112	1.514237	0.000927
1871.333	1.514423	0.000925
1872.554	1.514608	0.000922
1873.774	1.514792	0.00092
1874.995	1.514976	0.000917
1876.216	1.51516	0.000915
1877.437	1.515343	0.000913
1878.657	1.515525	0.00091
1879.878	1.515707	0.000908
1881.099	1.515889	0.000906
1882.319	1.51607	0.000903
1883.54	1.516251	0.000901
1884.761	1.516431	0.000898
1885.981	1.516611	0.000896
1887.202	1.51679	0.000894
1888.423	1.516969	0.000892
1889.644	1.517147	0.000889
1890.864	1.517325	0.000887
1892.085	1.517502	0.000885
1893.306	1.517679	0.000882
1894.526	1.517855	0.00088
1895.747	1.518031	0.000878
1896.968	1.518207	0.000876
1898.188	1.518382	0.000873
1899.409	1.518556	0.000871
1900.63	1.518731	0.000869
1901.851	1.518904	0.000867
1903.071	1.519078	0.000865
1904.292	1.51925	0.000862
1905.513	1.519423	0.00086
1906.733	1.519595	0.000858
1907.954	1.519766	0.000856
1909.175	1.519937	0.000854
1910.395	1.520108	0.000851
1911.616	1.520278	0.000849
1912.837	1.520447	0.000847
1914.058	1.520617	0.000845
1915.278	1.520786	0.000843
1916.499	1.520954	0.000841
1917.72	1.521122	0.000839
1918.94	1.521289	0.000837
1920.161	1.521457	0.000834
1921.382	1.521623	0.000832
1922.602	1.52179	0.00083
1923.823	1.521955	0.000828
1925.044	1.522121	0.000826
1926.265	1.522286	0.000824
1927.485	1.52245	0.000822
1928.706	1.522615	0.00082
1929.927	1.522778	0.000818
1931.147	1.522942	0.000816
1932.368	1.523105	0.000814
1933.589	1.523267	0.000812
1934.809	1.523429	0.00081
1936.03	1.523591	0.000808
1937.251	1.523752	0.000806
1938.472	1.523913	0.000804
1939.692	1.524074	0.000802
1940.913	1.524234	0.0008
1942.134	1.524393	0.000798
1943.354	1.524553	0.000796
1944.575	1.524712	0.000794
1945.796	1.52487	0.000792
1947.016	1.525028	0.00079
1948.237	1.525186	0.000788
1949.458	1.525343	0.000786
1950.679	1.5255	0.000784
1951.899	1.525657	0.000782
1953.12	1.525813	0.000781
1954.341	1.525969	0.000779
1955.561	1.526124	0.000777
1956.782	1.526279	0.000775
1958.003	1.526434	0.000773
1959.223	1.526588	0.000771
1960.444	1.526742	0.000769
1961.665	1.526895	0.000767
1962.886	1.527049	0.000766
1964.106	1.527201	0.000764
1965.327	1.527354	0.000762
1966.548	1.527506	0.00076
1967.768	1.527657	0.000758
1968.989	1.527809	0.000756
1970.21	1.527959	0.000754
1971.43	1.52811	0.000753
1972.651	1.52826	0.000751
1973.872	1.52841	0.000749
1975.093	1.528559	0.000747
1976.313	1.528708	0.000745
1977.534	1.528857	0.000744
1978.755	1.529005	0.000742
1979.975	1.529153	0.00074
1981.196	1.529301	0.000738
1982.417	1.529448	0.000737
1983.637	1.529595	0.000735
1984.858	1.529742	0.000733
1986.079	1.529888	0.000731
1987.3	1.530034	0.00073
1988.52	1.530179	0.000728
1989.741	1.530324	0.000726
1990.962	1.530469	0.000725
1992.182	1.530614	0.000723
1993.403	1.530758	0.000721
1994.624	1.530902	0.00072
1995.844	1.531045	0.000718
1997.065	1.531188	0.000716
1998.286	1.531331	0.000714
1999.507	1.531473	0.000713
2000.727	1.531615	0.000711
2001.948	1.531757	0.000709
2003.169	1.531898	0.000708
2004.389	1.53204	0.000706
2005.61	1.53218	0.000704
2006.831	1.532321	0.000703
2008.051	1.532461	0.000701
2009.272	1.532601	0.000699
2010.493	1.53274	0.000698
2011.714	1.532879	0.000696
2012.934	1.533018	0.000695
2014.155	1.533156	0.000693
2015.376	1.533294	0.000692
2016.596	1.533432	0.00069
2017.817	1.53357	0.000688
2019.038	1.533707	0.000687
2020.258	1.533844	0.000685
2021.479	1.53398	0.000684
2022.7	1.534116	0.000682
2023.921	1.534252	0.00068
2025.141	1.534388	0.000679
2026.362	1.534523	0.000677
2027.583	1.534658	0.000676
2028.803	1.534792	0.000674
2030.024	1.534927	0.000673
2031.245	1.535061	0.000671
2032.465	1.535194	0.00067
2033.686	1.535328	0.000668
2034.907	1.535461	0.000667
2036.128	1.535593	0.000665
2037.348	1.535726	0.000663
2038.569	1.535858	0.000662
2039.79	1.53599	0.000661
2041.01	1.536121	0.000659
2042.231	1.536253	0.000658
2043.452	1.536384	0.000656
2044.672	1.536514	0.000654
2045.893	1.536644	0.000653
2047.114	1.536775	0.000652
2048.335	1.536904	0.00065
2049.555	1.537034	0.000649
2050.776	1.537163	0.000647
2051.997	1.537292	0.000646
2053.217	1.53742	0.000644
2054.438	1.537549	0.000643
2055.659	1.537676	0.000641
2056.879	1.537804	0.00064
2058.1	1.537932	0.000638
2059.321	1.538059	0.000637
2060.542	1.538185	0.000636
2061.762	1.538312	0.000634
2062.983	1.538438	0.000633
2064.204	1.538564	0.000631
2065.424	1.53869	0.00063
2066.645	1.538815	0.000629
2067.866	1.53894	0.000627
2069.086	1.539065	0.000626
2070.307	1.53919	0.000624
2071.528	1.539314	0.000623
2072.749	1.539438	0.000622
2073.969	1.539562	0.00062
2075.19	1.539685	0.000619
2076.411	1.539808	0.000618
2077.631	1.539931	0.000616
2078.852	1.540054	0.000615
2080.073	1.540176	0.000614
2081.293	1.540298	0.000612
2082.514	1.54042	0.000611
2083.735	1.540542	0.000609
2084.956	1.540663	0.000608
2086.176	1.540784	0.000607
2087.397	1.540905	0.000606
2088.618	1.541025	0.000604
2089.838	1.541145	0.000603
2091.059	1.541265	0.000601
2092.28	1.541385	0.0006
2093.5	1.541504	0.000599
2094.721	1.541623	0.000598
2095.942	1.541742	0.000596
2097.163	1.541861	0.000595
2098.383	1.541979	0.000594
2099.604	1.542097	0.000592
2100.825	1.542215	0.000591
2102.045	1.542333	0.00059
2103.266	1.54245	0.000589
2104.487	1.542567	0.000587
2105.707	1.542684	0.000586
2106.928	1.5428	0.000585
2108.149	1.542917	0.000584
2109.37	1.543033	0.000582
2110.59	1.543148	0.000581
2111.811	1.543264	0.00058
2113.032	1.543379	0.000578
2114.252	1.543494	0.000577
2115.473	1.543609	0.000576
2116.694	1.543724	0.000575
2117.914	1.543838	0.000574
2119.135	1.543952	0.000572
2120.356	1.544066	0.000571
2121.577	1.544179	0.00057
2122.797	1.544293	0.000569
2124.018	1.544406	0.000568
2125.239	1.544518	0.000566
2126.459	1.544631	0.000565
2127.68	1.544743	0.000564
2128.901	1.544855	0.000563
2130.121	1.544967	0.000562
2131.342	1.545079	0.00056
2132.563	1.54519	0.000559
2133.784	1.545301	0.000558
2135.004	1.545412	0.000557
2136.225	1.545523	0.000556
2137.446	1.545633	0.000554
2138.666	1.545743	0.000553
2139.887	1.545853	0.000552
2141.108	1.545963	0.000551
2142.328	1.546072	0.00055
2143.549	1.546182	0.000549
2144.77	1.546291	0.000547
2145.991	1.5464	0.000546
2147.211	1.546508	0.000545
2148.432	1.546616	0.000544
2149.653	1.546725	0.000543
2150.873	1.546832	0.000542
2152.094	1.54694	0.000541
2153.315	1.547047	0.000539
2154.535	1.547155	0.000538
2155.756	1.547261	0.000537
2156.977	1.547368	0.000536
2158.198	1.547475	0.000535
2159.418	1.547581	0.000534
2160.639	1.547687	0.000533
2161.86	1.547793	0.000532
2163.08	1.547899	0.000531
2164.301	1.548004	0.00053
2165.522	1.548109	0.000528
2166.742	1.548214	0.000527
2167.963	1.548319	0.000526
2169.184	1.548423	0.000525
2170.405	1.548528	0.000524
2171.625	1.548632	0.000523
2172.846	1.548735	0.000522
2174.067	1.548839	0.000521
2175.287	1.548943	0.00052
2176.508	1.549046	0.000519
2177.729	1.549149	0.000518
2178.949	1.549252	0.000517
2180.17	1.549354	0.000516
2181.391	1.549457	0.000515
2182.612	1.549559	0.000513
2183.832	1.549661	0.000512
2185.053	1.549762	0.000511
2186.274	1.549864	0.00051
2187.494	1.549965	0.000509
2188.715	1.550066	0.000508
2189.936	1.550167	0.000507
2191.156	1.550268	0.000506
2192.377	1.550368	0.000505
2193.598	1.550469	0.000504
2194.819	1.550569	0.000503
2196.039	1.550669	0.000502
2197.26	1.550768	0.000501
2198.481	1.550868	0.0005
2199.701	1.550967	0.000499
2200.922	1.551066	0.000498
2202.143	1.551165	0.000497
2203.363	1.551264	0.000496
2204.584	1.551362	0.000495
2205.805	1.55146	0.000494
2207.026	1.551558	0.000493
2208.246	1.551656	0.000492
2209.467	1.551754	0.000491
2210.688	1.551851	0.00049
2211.908	1.551948	0.000489
2213.129	1.552045	0.000488
2214.35	1.552142	0.000487
2215.57	1.552239	0.000486
2216.791	1.552336	0.000485
2218.012	1.552432	0.000484
2219.233	1.552528	0.000483
2220.453	1.552624	0.000482
2221.674	1.552719	0.000481
2222.895	1.552815	0.00048
2224.115	1.55291	0.000479
2225.336	1.553005	0.000478
2226.557	1.5531	0.000477
2227.777	1.553195	0.000476
2228.998	1.55329	0.000476
2230.219	1.553384	0.000475
2231.44	1.553478	0.000474
2232.66	1.553572	0.000473
2233.881	1.553666	0.000472
2235.102	1.553759	0.000471
2236.322	1.553853	0.00047
2237.543	1.553946	0.000469
2238.764	1.554039	0.000468
2239.984	1.554132	0.000467
2241.205	1.554225	0.000466
2242.426	1.554317	0.000465
2243.647	1.55441	0.000464
2244.867	1.554502	0.000464
2246.088	1.554594	0.000463
2247.309	1.554685	0.000462
2248.529	1.554777	0.000461
2249.75	1.554868	0.00046
2250.971	1.55496	0.000459
2252.191	1.55505	0.000458
2253.412	1.555141	0.000457
2254.633	1.555232	0.000456
2255.854	1.555323	0.000456
2257.074	1.555413	0.000455
2258.295	1.555503	0.000454
2259.516	1.555593	0.000453
2260.736	1.555683	0.000452
2261.957	1.555772	0.000451
2263.178	1.555862	0.00045
2264.398	1.555951	0.000449
2265.619	1.55604	0.000448
2266.84	1.556129	0.000448
2268.061	1.556218	0.000447
2269.281	1.556306	0.000446
2270.502	1.556395	0.000445
2271.723	1.556483	0.000444
2272.943	1.556571	0.000443
2274.164	1.556659	0.000442
2275.385	1.556747	0.000442
2276.605	1.556834	0.000441
2277.826	1.556922	0.00044
2279.047	1.557009	0.000439
2280.268	1.557096	0.000438
2281.488	1.557183	0.000437
2282.709	1.557269	0.000437
2283.93	1.557356	0.000436
2285.15	1.557442	0.000435
2286.371	1.557528	0.000434
2287.592	1.557614	0.000433
2288.812	1.5577	0.000432
2290.033	1.557786	0.000431
2291.254	1.557872	0.000431
2292.475	1.557957	0.00043
2293.695	1.558042	0.000429
2294.916	1.558127	0.000428
2296.137	1.558212	0.000427
2297.357	1.558297	0.000427
2298.578	1.558381	0.000426
2299.799	1.558466	0.000425
2301.019	1.55855	0.000424
2302.24	1.558634	0.000423
2303.461	1.558718	0.000423
2304.682	1.558802	0.000422
2305.902	1.558885	0.000421
2307.123	1.558969	0.00042
2308.344	1.559052	0.000419
2309.564	1.559135	0.000419
2310.785	1.559218	0.000418
2312.006	1.559301	0.000417
2313.226	1.559384	0.000416
2314.447	1.559466	0.000415
2315.668	1.559548	0.000415
2316.889	1.55963	0.000414
2318.109	1.559712	0.000413
2319.33	1.559794	0.000412
2320.551	1.559876	0.000412
2321.771	1.559958	0.000411
2322.992	1.560039	0.00041
2324.213	1.56012	0.000409
2325.433	1.560201	0.000409
2326.654	1.560282	0.000408
2327.875	1.560363	0.000407
2329.096	1.560444	0.000406
2330.316	1.560524	0.000406
2331.537	1.560604	0.000405
2332.758	1.560685	0.000404
2333.978	1.560765	0.000403
2335.199	1.560845	0.000403
2336.42	1.560924	0.000402
2337.64	1.561004	0.000401
2338.861	1.561083	0.0004
2340.082	1.561163	0.0004
2341.303	1.561242	0.000399
2342.523	1.561321	0.000398
2343.744	1.561399	0.000397
2344.965	1.561478	0.000397
2346.185	1.561557	0.000396
2347.406	1.561635	0.000395
2348.627	1.561713	0.000394
2349.847	1.561792	0.000394
2351.068	1.56187	0.000393
2352.289	1.561947	0.000392
2353.51	1.562025	0.000392
2354.73	1.562103	0.000391
2355.951	1.56218	0.00039
2357.172	1.562257	0.000389
2358.392	1.562334	0.000389
2359.613	1.562411	0.000388
2360.834	1.562488	0.000387
2362.054	1.562565	0.000387
2363.275	1.562641	0.000386
2364.496	1.562718	0.000385
2365.717	1.562794	0.000384
2366.937	1.56287	0.000384
2368.158	1.562946	0.000383
2369.379	1.563022	0.000382
2370.599	1.563098	0.000382
2371.82	1.563173	0.000381
2373.041	1.563249	0.00038
2374.261	1.563324	0.00038
2375.482	1.563399	0.000379
2376.703	1.563474	0.000378
2377.924	1.563549	0.000378
2379.144	1.563624	0.000377
2380.365	1.563698	0.000376
2381.586	1.563773	0.000376
2382.806	1.563847	0.000375
2384.027	1.563921	0.000374
2385.248	1.563995	0.000373
2386.468	1.564069	0.000373
2387.689	1.564143	0.000372
2388.91	1.564217	0.000372
2390.131	1.56429	0.000371
2391.351	1.564364	0.00037
2392.572	1.564437	0.000369
2393.793	1.56451	0.000369
2395.013	1.564583	0.000368
2396.234	1.564656	0.000368
2397.455	1.564728	0.000367
2398.675	1.564801	0.000366
2399.896	1.564874	0.000365
2401.117	1.564946	0.000365
2402.338	1.565018	0.000364
2403.558	1.56509	0.000364
2404.779	1.565162	0.000363
2406	1.565234	0.000362
2407.22	1.565306	0.000362
2408.441	1.565377	0.000361
2409.662	1.565449	0.00036
2410.882	1.56552	0.00036
2412.103	1.565591	0.000359
2413.324	1.565662	0.000358
2414.545	1.565733	0.000358
2415.765	1.565804	0.000357
2416.986	1.565875	0.000357
2418.207	1.565945	0.000356
2419.427	1.566015	0.000355
2420.648	1.566086	0.000355
2421.869	1.566156	0.000354
2423.089	1.566226	0.000353
2424.31	1.566296	0.000353
2425.531	1.566366	0.000352
2426.752	1.566435	0.000352
2427.972	1.566505	0.000351
2429.193	1.566574	0.00035
2430.414	1.566644	0.00035
2431.634	1.566713	0.000349
2432.855	1.566782	0.000349
2434.076	1.566851	0.000348
2435.296	1.56692	0.000347
2436.517	1.566988	0.000347
2437.738	1.567057	0.000346
2438.959	1.567125	0.000346
2440.179	1.567194	0.000345
2441.4	1.567262	0.000344
2442.621	1.56733	0.000344
2443.841	1.567398	0.000343
2445.062	1.567466	0.000342
2446.283	1.567533	0.000342
2447.503	1.567601	0.000341
2448.724	1.567669	0.000341
2449.945	1.567736	0.00034
2451.166	1.567803	0.000339
2452.386	1.56787	0.000339
2453.607	1.567937	0.000338
2454.828	1.568004	0.000338
2456.048	1.568071	0.000337
2457.269	1.568138	0.000337
2458.49	1.568204	0.000336
2459.71	1.568271	0.000335
2460.931	1.568337	0.000335
2462.152	1.568403	0.000334
2463.373	1.568469	0.000334
2464.593	1.568535	0.000333
2465.814	1.568601	0.000332
2467.035	1.568667	0.000332
2468.255	1.568733	0.000331
2469.476	1.568798	0.000331
2470.697	1.568864	0.00033
2471.917	1.568929	0.00033
2473.138	1.568994	0.000329
2474.359	1.569059	0.000329
2475.58	1.569124	0.000328
2476.8	1.569189	0.000327
2478.021	1.569254	0.000327
2479.242	1.569318	0.000326
2480.462	1.569383	0.000326
2481.683	1.569447	0.000325
2482.904	1.569511	0.000325
2484.124	1.569576	0.000324
2485.345	1.56964	0.000323
2486.566	1.569704	0.000323
2487.787	1.569767	0.000322
2489.007	1.569831	0.000322
2490.228	1.569895	0.000321
2491.449	1.569958	0.000321
2492.669	1.570022	0.00032
2493.89	1.570085	0.00032
2495.111	1.570148	0.000319
2496.331	1.570211	0.000319
2497.552	1.570274	0.000318
2498.773	1.570337	0.000318
2499.994	1.5704	0.000317
2501.214	1.570463	0.000316
2502.435	1.570525	0.000316
2503.656	1.570588	0.000315
2504.876	1.57065	0.000315
2506.097	1.570712	0.000314
2507.318	1.570774	0.000314
2508.538	1.570836	0.000313
2509.759	1.570898	0.000313
2510.98	1.57096	0.000312
2512.201	1.571022	0.000312
2513.421	1.571083	0.000311
2514.642	1.571145	0.000311
2515.863	1.571206	0.00031
2517.083	1.571268	0.00031
2518.304	1.571329	0.000309
2519.525	1.57139	0.000309
2520.745	1.571451	0.000308
2521.966	1.571512	0.000308
2523.187	1.571573	0.000307
2524.408	1.571633	0.000307
2525.628	1.571694	0.000306
2526.849	1.571754	0.000305
2528.07	1.571815	0.000305
2529.29	1.571875	0.000304
2530.511	1.571935	0.000304
2531.732	1.571995	0.000304
2532.952	1.572055	0.000303
2534.173	1.572115	0.000303
2535.394	1.572175	0.000302
2536.615	1.572235	0.000301
2537.835	1.572294	0.000301
2539.056	1.572353	0.0003
2540.277	1.572413	0.0003
2541.497	1.572472	0.0003
2542.718	1.572531	0.000299
2543.939	1.57259	0.000299
2545.159	1.572649	0.000298
2546.38	1.572708	0.000297
2547.601	1.572767	0.000297
2548.822	1.572826	0.000297
2550.042	1.572884	0.000296
2551.263	1.572943	0.000296
2552.484	1.573001	0.000295
2553.704	1.573059	0.000295
2554.925	1.573118	0.000294
2556.146	1.573176	0.000294
2557.366	1.573234	0.000293
2558.587	1.573292	0.000293
2559.808	1.573349	0.000292
2561.029	1.573407	0.000292
2562.249	1.573465	0.000291
2563.47	1.573522	0.000291
2564.691	1.57358	0.00029
2565.911	1.573637	0.00029
2567.132	1.573694	0.000289
2568.353	1.573752	0.000289
2569.573	1.573809	0.000288
2570.794	1.573866	0.000288
2572.015	1.573922	0.000288
2573.236	1.573979	0.000287
2574.456	1.574036	0.000287
2575.677	1.574093	0.000286
2576.898	1.574149	0.000286
2578.118	1.574205	0.000285
2579.339	1.574262	0.000285
2580.56	1.574318	0.000284
2581.78	1.574374	0.000284
2583.001	1.57443	0.000283
2584.222	1.574486	0.000283
2585.443	1.574542	0.000282
2586.663	1.574598	0.000282
2587.884	1.574653	0.000281
2589.105	1.574709	0.000281
2590.325	1.574764	0.000281
2591.546	1.57482	0.00028
2592.767	1.574875	0.00028
2593.987	1.57493	0.000279
2595.208	1.574986	0.000279
2596.429	1.575041	0.000278
2597.65	1.575096	0.000278
2598.87	1.57515	0.000277
2600.091	1.575205	0.000277
2601.312	1.57526	0.000277
2602.532	1.575314	0.000276
2603.753	1.575369	0.000276
2604.974	1.575423	0.000275
2606.194	1.575478	0.000275
2607.415	1.575532	0.000274
2608.636	1.575586	0.000274
2609.857	1.57564	0.000273
2611.077	1.575694	0.000273
2612.298	1.575748	0.000273
2613.519	1.575802	0.000272
2614.739	1.575856	0.000272
2615.96	1.575909	0.000271
2617.181	1.575963	0.000271
2618.401	1.576016	0.00027
2619.622	1.57607	0.00027
2620.843	1.576123	0.00027
2622.064	1.576176	0.000269
2623.284	1.576229	0.000269
2624.505	1.576283	0.000268
2625.726	1.576335	0.000268
2626.946	1.576388	0.000267
2628.167	1.576441	0.000267
2629.388	1.576494	0.000267
2630.608	1.576546	0.000266
2631.829	1.576599	0.000266
2633.05	1.576651	0.000265
2634.271	1.576704	0.000265
2635.491	1.576756	0.000265
2636.712	1.576808	0.000264
2637.933	1.57686	0.000264
2639.153	1.576913	0.000263
2640.374	1.576964	0.000263
2641.595	1.577016	0.000262
2642.815	1.577068	0.000262
2644.036	1.57712	0.000262
2645.257	1.577171	0.000261
2646.478	1.577223	0.000261
2647.698	1.577274	0.00026
2648.919	1.577326	0.00026
2650.14	1.577377	0.00026
2651.36	1.577428	0.000259
2652.581	1.577479	0.000259
2653.802	1.577531	0.000258
2655.022	1.577582	0.000258
2656.243	1.577633	0.000258
2657.464	1.577683	0.000257
2658.685	1.577734	0.000257
2659.905	1.577785	0.000256
2661.126	1.577835	0.000256
2662.347	1.577886	0.000256
2663.567	1.577936	0.000255
2664.788	1.577987	0.000255
2666.009	1.578037	0.000254
2667.229	1.578087	0.000254
2668.45	1.578137	0.000254
2669.671	1.578187	0.000253
2670.892	1.578237	0.000253
2672.112	1.578287	0.000252
2673.333	1.578337	0.000252
2674.554	1.578387	0.000252
2675.774	1.578436	0.000251
2676.995	1.578486	0.000251
2678.216	1.578535	0.00025
2679.436	1.578585	0.00025
2680.657	1.578634	0.00025
2681.878	1.578683	0.000249
2683.099	1.578732	0.000249
2684.319	1.578782	0.000249
2685.54	1.578831	0.000248
2686.761	1.57888	0.000248
2687.981	1.578928	0.000247
2689.202	1.578977	0.000247
2690.423	1.579026	0.000247
2691.643	1.579075	0.000246
2692.864	1.579123	0.000246
2694.085	1.579172	0.000246
2695.306	1.57922	0.000245
2696.526	1.579268	0.000245
2697.747	1.579317	0.000244
2698.968	1.579365	0.000244
2700.188	1.579413	0.000244
2701.409	1.579461	0.000243
2702.63	1.579509	0.000243
2703.85	1.579557	0.000242
2705.071	1.579605	0.000242
2706.292	1.579653	0.000242
2707.513	1.5797	0.000241
2708.733	1.579748	0.000241
2709.954	1.579796	0.000241
2711.175	1.579843	0.00024
2712.395	1.57989	0.00024
2713.616	1.579938	0.00024
2714.837	1.579985	0.000239
2716.057	1.580032	0.000239
2717.278	1.580079	0.000238
2718.499	1.580126	0.000238
2719.72	1.580173	0.000238
2720.94	1.58022	0.000237
2722.161	1.580267	0.000237
2723.382	1.580314	0.000237
2724.602	1.58036	0.000236
2725.823	1.580407	0.000236
2727.044	1.580454	0.000236
2728.264	1.5805	0.000235
2729.485	1.580546	0.000235
2730.706	1.580593	0.000235
2731.927	1.580639	0.000234
2733.147	1.580685	0.000234
2734.368	1.580731	0.000234
2735.589	1.580777	0.000233
2736.809	1.580823	0.000233
2738.03	1.580869	0.000232
2739.251	1.580915	0.000232
2740.471	1.580961	0.000232
2741.692	1.581007	0.000231
2742.913	1.581052	0.000231
2744.134	1.581098	0.000231
2745.354	1.581143	0.00023
2746.575	1.581189	0.00023
2747.796	1.581234	0.00023
2749.016	1.581279	0.000229
2750.237	1.581325	0.000229
2751.458	1.58137	0.000229
2752.678	1.581415	0.000228
2753.899	1.58146	0.000228
2755.12	1.581505	0.000228
2756.341	1.58155	0.000227
2757.561	1.581594	0.000227
2758.782	1.581639	0.000227
2760.003	1.581684	0.000226
2761.223	1.581729	0.000226
2762.444	1.581773	0.000226
2763.665	1.581818	0.000225
2764.885	1.581862	0.000225
2766.106	1.581906	0.000225
2767.327	1.581951	0.000224
2768.548	1.581995	0.000224
2769.768	1.582039	0.000224
2770.989	1.582083	0.000223
2772.21	1.582127	0.000223
2773.43	1.582171	0.000223
2774.651	1.582215	0.000222
2775.872	1.582259	0.000222
2777.092	1.582302	0.000222
2778.313	1.582346	0.000221
2779.534	1.58239	0.000221
2780.755	1.582433	0.000221
2781.975	1.582477	0.00022
2783.196	1.58252	0.00022
2784.417	1.582564	0.00022
2785.637	1.582607	0.000219
2786.858	1.58265	0.000219
2788.079	1.582693	0.000219
2789.299	1.582737	0.000218
2790.52	1.58278	0.000218
2791.741	1.582823	0.000218
2792.962	1.582866	0.000217
2794.182	1.582908	0.000217
2795.403	1.582951	0.000217
2796.624	1.582994	0.000217
2797.844	1.583037	0.000216
2799.065	1.583079	0.000216
2800.286	1.583122	0.000216
2801.506	1.583164	0.000215
2802.727	1.583207	0.000215
2803.948	1.583249	0.000215
2805.169	1.583291	0.000214
2806.389	1.583334	0.000214
2807.61	1.583376	0.000214
2808.831	1.583418	0.000213
2810.051	1.58346	0.000213
2811.272	1.583502	0.000213
2812.493	1.583544	0.000212
2813.713	1.583586	0.000212
2814.934	1.583628	0.000212
2816.155	1.583669	0.000211
2817.376	1.583711	0.000211
2818.596	1.583753	0.000211
2819.817	1.583794	0.000211
2821.038	1.583836	0.00021
2822.258	1.583877	0.00021
2823.479	1.583918	0.00021
2824.7	1.58396	0.000209
2825.92	1.584001	0.000209
2827.141	1.584042	0.000209
2828.362	1.584083	0.000209
2829.583	1.584124	0.000208
2830.803	1.584166	0.000208
2832.024	1.584206	0.000208
2833.245	1.584247	0.000207
2834.465	1.584288	0.000207
2835.686	1.584329	0.000207
2836.907	1.58437	0.000206
2838.127	1.58441	0.000206
2839.348	1.584451	0.000206
2840.569	1.584492	0.000205
2841.79	1.584532	0.000205
2843.01	1.584573	0.000205
2844.231	1.584613	0.000205
2845.452	1.584653	0.000204
2846.672	1.584693	0.000204
2847.893	1.584734	0.000204
2849.114	1.584774	0.000204
2850.334	1.584814	0.000203
2851.555	1.584854	0.000203
2852.776	1.584894	0.000203
2853.997	1.584934	0.000202
2855.217	1.584974	0.000202
2856.438	1.585013	0.000202
2857.659	1.585053	0.000201
2858.879	1.585093	0.000201
2860.1	1.585132	0.000201
2861.321	1.585172	0.000201
2862.541	1.585212	0.0002
2863.762	1.585251	0.0002
2864.983	1.585291	0.0002
2866.204	1.58533	0.000199
2867.424	1.585369	0.000199
2868.645	1.585408	0.000199
2869.866	1.585448	0.000199
2871.086	1.585487	0.000198
2872.307	1.585526	0.000198
2873.528	1.585565	0.000198
2874.748	1.585604	0.000198
2875.969	1.585643	0.000197
2877.19	1.585681	0.000197
2878.411	1.58572	0.000197
2879.631	1.585759	0.000196
2880.852	1.585798	0.000196
2882.073	1.585836	0.000196
2883.293	1.585875	0.000196
2884.514	1.585913	0.000195
2885.735	1.585952	0.000195
2886.955	1.58599	0.000195
2888.176	1.586029	0.000194
2889.397	1.586067	0.000194
2890.618	1.586105	0.000194
2891.838	1.586143	0.000194
2893.059	1.586182	0.000193
2894.28	1.58622	0.000193
2895.5	1.586258	0.000193
2896.721	1.586296	0.000192
2897.942	1.586334	0.000192
2899.162	1.586371	0.000192
2900.383	1.586409	0.000192
2901.604	1.586447	0.000192
2902.825	1.586485	0.000191
2904.045	1.586522	0.000191
2905.266	1.58656	0.000191
2906.487	1.586597	0.00019
2907.707	1.586635	0.00019
2908.928	1.586672	0.00019
2910.149	1.58671	0.00019
2911.369	1.586747	0.000189
2912.59	1.586784	0.000189
2913.811	1.586822	0.000189
2915.032	1.586859	0.000189
2916.252	1.586896	0.000188
2917.473	1.586933	0.000188
2918.694	1.58697	0.000188
2919.914	1.587007	0.000188
2921.135	1.587044	0.000187
2922.356	1.587081	0.000187
2923.576	1.587118	0.000187
2924.797	1.587155	0.000186
2926.018	1.587191	0.000186
2927.239	1.587228	0.000186
2928.459	1.587265	0.000186
2929.68	1.587301	0.000186
2930.901	1.587338	0.000185
2932.121	1.587374	0.000185
2933.342	1.58741	0.000185
2934.563	1.587447	0.000184
2935.783	1.587483	0.000184
2937.004	1.587519	0.000184
2938.225	1.587556	0.000184
2939.446	1.587592	0.000183
2940.666	1.587628	0.000183
2941.887	1.587664	0.000183
2943.108	1.5877	0.000183
2944.328	1.587736	0.000182
2945.549	1.587772	0.000182
2946.77	1.587808	0.000182
2947.99	1.587844	0.000182
2949.211	1.587879	0.000181
2950.432	1.587915	0.000181
2951.653	1.587951	0.000181
2952.873	1.587986	0.000181
2954.094	1.588022	0.00018
2955.315	1.588057	0.00018
2956.535	1.588093	0.00018
2957.756	1.588128	0.00018
2958.977	1.588164	0.000179
2960.197	1.588199	0.000179
2961.418	1.588234	0.000179
2962.639	1.58827	0.000179
2963.86	1.588305	0.000179
2965.08	1.58834	0.000178
2966.301	1.588375	0.000178
2967.522	1.58841	0.000178
2968.742	1.588445	0.000177
2969.963	1.58848	0.000177
2971.184	1.588515	0.000177
2972.404	1.58855	0.000177
2973.625	1.588585	0.000177
2974.846	1.588619	0.000176
2976.067	1.588654	0.000176
2977.287	1.588689	0.000176
2978.508	1.588723	0.000176
2979.729	1.588758	0.000175
2980.949	1.588792	0.000175
2982.17	1.588827	0.000175
2983.391	1.588861	0.000175
2984.611	1.588896	0.000174
2985.832	1.58893	0.000174
2987.053	1.588964	0.000174
2988.274	1.588998	0.000174
2989.494	1.589033	0.000173
2990.715	1.589067	0.000173
2991.936	1.589101	0.000173
2993.156	1.589135	0.000173
2994.377	1.589169	0.000173
2995.598	1.589203	0.000172
2996.818	1.589237	0.000172
2998.039	1.589271	0.000172
2999.26	1.589305	0.000172
3000.481	1.589338	0.000171
3001.701	1.589372	0.000171
3002.922	1.589406	0.000171
3004.143	1.589439	0.000171
3005.363	1.589473	0.000171
3006.584	1.589507	0.00017
3007.805	1.58954	0.00017
3009.025	1.589574	0.00017
3010.246	1.589607	0.00017
3011.467	1.58964	0.000169
3012.688	1.589674	0.000169
3013.908	1.589707	0.000169
3015.129	1.58974	0.000169
3016.35	1.589773	0.000168
3017.57	1.589806	0.000168
3018.791	1.58984	0.000168
3020.012	1.589873	0.000168
3021.232	1.589906	0.000167
3022.453	1.589939	0.000167
3023.674	1.589972	0.000167
3024.895	1.590005	0.000167
3026.115	1.590037	0.000167
3027.336	1.59007	0.000166
3028.557	1.590103	0.000166
3029.777	1.590136	0.000166
3030.998	1.590168	0.000166
3032.219	1.590201	0.000165
3033.439	1.590233	0.000165
3034.66	1.590266	0.000165
3035.881	1.590298	0.000165
3037.102	1.590331	0.000165
3038.322	1.590363	0.000165
3039.543	1.590396	0.000164
3040.764	1.590428	0.000164
3041.984	1.59046	0.000164
3043.205	1.590492	0.000164
3044.426	1.590525	0.000163
3045.646	1.590557	0.000163
3046.867	1.590589	0.000163
3048.088	1.590621	0.000163
3049.309	1.590653	0.000163
3050.529	1.590685	0.000162
3051.75	1.590717	0.000162
3052.971	1.590749	0.000162
3054.191	1.590781	0.000162
3055.412	1.590813	0.000161
3056.633	1.590844	0.000161
3057.853	1.590876	0.000161
3059.074	1.590908	0.000161
3060.295	1.590939	0.000161
3061.516	1.590971	0.00016
3062.736	1.591003	0.00016
3063.957	1.591034	0.00016
3065.178	1.591066	0.00016
3066.398	1.591097	0.00016
3067.619	1.591128	0.000159
3068.84	1.59116	0.000159
3070.06	1.591191	0.000159
3071.281	1.591222	0.000159
3072.502	1.591254	0.000158
3073.723	1.591285	0.000158
3074.943	1.591316	0.000158
3076.164	1.591347	0.000158
3077.385	1.591378	0.000158
3078.605	1.591409	0.000158
3079.826	1.59144	0.000157
3081.047	1.591471	0.000157
3082.267	1.591502	0.000157
3083.488	1.591533	0.000157
3084.709	1.591564	0.000156
3085.93	1.591594	0.000156
3087.15	1.591625	0.000156
3088.371	1.591656	0.000156
3089.592	1.591686	0.000156
3090.812	1.591717	0.000156
3092.033	1.591748	0.000155
3093.254	1.591778	0.000155
3094.474	1.591809	0.000155
3095.695	1.591839	0.000155
3096.916	1.59187	0.000154
3098.137	1.5919	0.000154
3099.357	1.59193	0.000154
3100.578	1.591961	0.000154
3101.799	1.591991	0.000154
3103.019	1.592021	0.000154
3104.24	1.592051	0.000153
3105.461	1.592082	0.000153
3106.681	1.592112	0.000153
3107.902	1.592142	0.000153
3109.123	1.592172	0.000152
3110.344	1.592202	0.000152
3111.564	1.592232	0.000152
3112.785	1.592262	0.000152
3114.006	1.592291	0.000152
3115.226	1.592321	0.000152
3116.447	1.592351	0.000151
3117.668	1.592381	0.000151
3118.888	1.592411	0.000151
3120.109	1.59244	0.000151
3121.33	1.59247	0.00015
3122.551	1.5925	0.00015
3123.771	1.592529	0.00015
3124.992	1.592559	0.00015
3126.213	1.592588	0.00015
3127.433	1.592618	0.00015
3128.654	1.592647	0.000149
3129.875	1.592677	0.000149
3131.095	1.592706	0.000149
3132.316	1.592735	0.000149
3133.537	1.592764	0.000149
3134.758	1.592794	0.000148
3135.978	1.592823	0.000148
3137.199	1.592852	0.000148
3138.42	1.592881	0.000148
3139.64	1.59291	0.000148
3140.861	1.592939	0.000148
3142.082	1.592968	0.000147
3143.302	1.592997	0.000147
3144.523	1.593026	0.000147
3145.744	1.593055	0.000147
3146.965	1.593084	0.000147
3148.185	1.593113	0.000146
3149.406	1.593142	0.000146
3150.627	1.59317	0.000146
3151.847	1.593199	0.000146
3153.068	1.593228	0.000146
3154.289	1.593256	0.000146
3155.509	1.593285	0.000145
3156.73	1.593314	0.000145
3157.951	1.593342	0.000145
3159.172	1.593371	0.000145
3160.392	1.593399	0.000145
3161.613	1.593428	0.000144
3162.834	1.593456	0.000144
3164.054	1.593484	0.000144
3165.275	1.593513	0.000144
3166.496	1.593541	0.000144
3167.716	1.593569	0.000144
3168.937	1.593597	0.000143
3170.158	1.593626	0.000143
3171.379	1.593654	0.000143
3172.599	1.593682	0.000143
3173.82	1.59371	0.000143
3175.041	1.593738	0.000142
3176.261	1.593766	0.000142
3177.482	1.593794	0.000142
3178.703	1.593822	0.000142
3179.923	1.59385	0.000142
3181.144	1.593878	0.000142
3182.365	1.593905	0.000141
3183.586	1.593933	0.000141
3184.806	1.593961	0.000141
3186.027	1.593989	0.000141
3187.248	1.594016	0.000141
3188.468	1.594044	0.00014
3189.689	1.594072	0.00014
3190.91	1.594099	0.00014
3192.13	1.594127	0.00014
3193.351	1.594154	0.00014
3194.572	1.594182	0.00014
3195.793	1.594209	0.000139
3197.013	1.594237	0.000139
3198.234	1.594264	0.000139
3199.455	1.594291	0.000139
3200.675	1.594319	0.000139
3201.896	1.594346	0.000139
3203.117	1.594373	0.000138
3204.337	1.5944	0.000138
3205.558	1.594427	0.000138
3206.779	1.594455	0.000138
3208	1.594482	0.000138
3209.22	1.594509	0.000137
3210.441	1.594536	0.000137
3211.662	1.594563	0.000137
3212.882	1.59459	0.000137
3214.103	1.594617	0.000137
3215.324	1.594644	0.000137
3216.544	1.594671	0.000137
3217.765	1.594697	0.000136
3218.986	1.594724	0.000136
3220.207	1.594751	0.000136
3221.427	1.594778	0.000136
3222.648	1.594804	0.000136
3223.869	1.594831	0.000135
3225.089	1.594858	0.000135
3226.31	1.594884	0.000135
3227.531	1.594911	0.000135
3228.751	1.594937	0.000135
3229.972	1.594964	0.000135
3231.193	1.59499	0.000135
3232.414	1.595017	0.000134
3233.634	1.595043	0.000134
3234.855	1.59507	0.000134
3236.076	1.595096	0.000134
3237.296	1.595122	0.000134
3238.517	1.595149	0.000133
3239.738	1.595175	0.000133
3240.958	1.595201	0.000133
3242.179	1.595227	0.000133
3243.4	1.595253	0.000133
3244.621	1.595279	0.000133
3245.841	1.595306	0.000133
3247.062	1.595332	0.000132
3248.283	1.595358	0.000132
3249.503	1.595384	0.000132
3250.724	1.59541	0.000132
3251.945	1.595436	0.000132
3253.165	1.595461	0.000132
3254.386	1.595487	0.000131
3255.607	1.595513	0.000131
3256.828	1.595539	0.000131
3258.048	1.595565	0.000131
3259.269	1.59559	0.000131
3260.49	1.595616	0.000131
3261.71	1.595642	0.000131
3262.931	1.595667	0.00013
3264.152	1.595693	0.00013
3265.372	1.595719	0.00013
3266.593	1.595744	0.00013
3267.814	1.59577	0.00013
3269.035	1.595795	0.000129
3270.255	1.595821	0.000129
3271.476	1.595846	0.000129
3272.697	1.595871	0.000129
3273.917	1.595897	0.000129
3275.138	1.595922	0.000129
3276.359	1.595947	0.000129
3277.579	1.595973	0.000128
3278.8	1.595998	0.000128
3280.021	1.596023	0.000128
3281.242	1.596048	0.000128
3282.462	1.596074	0.000128
3283.683	1.596099	0.000128
3284.904	1.596124	0.000127
3286.124	1.596149	0.000127
3287.345	1.596174	0.000127
3288.566	1.596199	0.000127
3289.786	1.596224	0.000127
3291.007	1.596249	0.000127
3292.228	1.596274	0.000127
3293.449	1.596298	0.000126
3294.669	1.596323	0.000126
3295.89	1.596348	0.000126
3297.111	1.596373	0.000126
3298.331	1.596398	0.000126
3299.552	1.596422	0.000126
3300.773	1.596447	0.000125
3301.993	1.596472	0.000125
3303.214	1.596496	0.000125
3304.435	1.596521	0.000125
3305.656	1.596546	0.000125
3306.876	1.59657	0.000125
3308.097	1.596595	0.000125
3309.318	1.596619	0.000125
3310.538	1.596644	0.000124
3311.759	1.596668	0.000124
3312.98	1.596692	0.000124
3314.2	1.596717	0.000124
3315.421	1.596741	0.000124
3316.642	1.596766	0.000124
3317.863	1.59679	0.000123
3319.083	1.596814	0.000123
3320.304	1.596838	0.000123
3321.525	1.596862	0.000123
3322.745	1.596887	0.000123
3323.966	1.596911	0.000123
3325.187	1.596935	0.000123
3326.407	1.596959	0.000122
3327.628	1.596983	0.000122
3328.849	1.597007	0.000122
3330.07	1.597031	0.000122
3331.29	1.597055	0.000122
3332.511	1.597079	0.000122
3333.732	1.597103	0.000122
3334.952	1.597127	0.000121
3336.173	1.597151	0.000121
3337.394	1.597175	0.000121
3338.614	1.597198	0.000121
3339.835	1.597222	0.000121
3341.056	1.597246	0.000121
3342.277	1.59727	0.000121
3343.497	1.597293	0.00012
3344.718	1.597317	0.00012
3345.939	1.59734	0.00012
3347.159	1.597364	0.00012
3348.38	1.597388	0.00012
3349.601	1.597411	0.00012
3350.821	1.597435	0.00012
3352.042	1.597458	0.000119
3353.263	1.597482	0.000119
3354.484	1.597505	0.000119
3355.704	1.597528	0.000119
3356.925	1.597552	0.000119
3358.146	1.597575	0.000119
3359.366	1.597599	0.000119
3360.587	1.597622	0.000118
3361.808	1.597645	0.000118
3363.028	1.597668	0.000118
3364.249	1.597692	0.000118
3365.47	1.597715	0.000118
3366.691	1.597738	0.000118
3367.911	1.597761	0.000118
3369.132	1.597784	0.000117
3370.353	1.597807	0.000117
3371.573	1.59783	0.000117
3372.794	1.597853	0.000117
3374.015	1.597876	0.000117
3375.235	1.597899	0.000117
3376.456	1.597922	0.000117
3377.677	1.597945	0.000116
3378.898	1.597968	0.000116
3380.118	1.597991	0.000116
3381.339	1.598014	0.000116
3382.56	1.598037	0.000116
3383.78	1.598059	0.000116
3385.001	1.598082	0.000116
3386.222	1.598105	0.000116
3387.442	1.598127	0.000115
3388.663	1.59815	0.000115
3389.884	1.598173	0.000115
3391.105	1.598195	0.000115
3392.325	1.598218	0.000115
3393.546	1.598241	0.000115
3394.767	1.598263	0.000115
3395.987	1.598286	0.000114
3397.208	1.598308	0.000114
3398.429	1.598331	0.000114
3399.649	1.598353	0.000114
3400.87	1.598376	0.000114
3402.091	1.598398	0.000114
3403.312	1.59842	0.000114
3404.532	1.598443	0.000114
3405.753	1.598465	0.000113
3406.974	1.598487	0.000113
3408.194	1.59851	0.000113
3409.415	1.598532	0.000113
3410.636	1.598554	0.000113
3411.856	1.598576	0.000113
3413.077	1.598598	0.000113
3414.298	1.59862	0.000112
3415.519	1.598643	0.000112
3416.739	1.598665	0.000112
3417.96	1.598687	0.000112
3419.181	1.598709	0.000112
3420.401	1.598731	0.000112
3421.622	1.598753	0.000112
3422.843	1.598775	0.000112
3424.063	1.598797	0.000111
3425.284	1.598819	0.000111
3426.505	1.59884	0.000111
3427.726	1.598862	0.000111
3428.946	1.598884	0.000111
3430.167	1.598906	0.000111
3431.388	1.598928	0.000111
3432.608	1.598949	0.000111
3433.829	1.598971	0.00011
3435.05	1.598993	0.00011
3436.27	1.599015	0.00011
3437.491	1.599036	0.00011
3438.712	1.599058	0.00011
3439.933	1.599079	0.00011
3441.153	1.599101	0.00011
3442.374	1.599123	0.00011
3443.595	1.599144	0.000109
3444.815	1.599166	0.000109
3446.036	1.599187	0.000109
3447.257	1.599208	0.000109
3448.477	1.59923	0.000109
3449.698	1.599251	0.000109
3450.919	1.599273	0.000109
3452.14	1.599294	0.000109
3453.36	1.599315	0.000108
3454.581	1.599337	0.000108
3455.802	1.599358	0.000108
3457.022	1.599379	0.000108
3458.243	1.599401	0.000108
3459.464	1.599422	0.000108
3460.684	1.599443	0.000108
3461.905	1.599464	0.000108
3463.126	1.599485	0.000107
3464.347	1.599506	0.000107
3465.567	1.599527	0.000107
3466.788	1.599548	0.000107
3468.009	1.59957	0.000107
3469.229	1.599591	0.000107
3470.45	1.599612	0.000107
3471.671	1.599633	0.000107
3472.891	1.599653	0.000107
3474.112	1.599674	0.000106
3475.333	1.599695	0.000106
3476.554	1.599716	0.000106
3477.774	1.599737	0.000106
3478.995	1.599758	0.000106
3480.216	1.599779	0.000106
3481.436	1.599799	0.000106
3482.657	1.59982	0.000106
3483.878	1.599841	0.000106
3485.098	1.599862	0.000105
3486.319	1.599882	0.000105
3487.54	1.599903	0.000105
3488.761	1.599924	0.000105
3489.981	1.599944	0.000105
3491.202	1.599965	0.000105
3492.423	1.599985	0.000105
3493.643	1.600006	0.000105
3494.864	1.600026	0.000104
3496.085	1.600047	0.000104
3497.305	1.600067	0.000104
3498.526	1.600088	0.000104
3499.747	1.600108	0.000104
3500.968	1.600129	0.000104
3502.188	1.600149	0.000104
3503.409	1.60017	0.000104
3504.63	1.60019	0.000104
3505.85	1.60021	0.000103
3507.071	1.60023	0.000103
3508.292	1.600251	0.000103
3509.512	1.600271	0.000103
3510.733	1.600291	0.000103
3511.954	1.600312	0.000103
3513.175	1.600332	0.000103
3514.395	1.600352	0.000103
3515.616	1.600372	0.000102
3516.837	1.600392	0.000102
3518.057	1.600412	0.000102
3519.278	1.600432	0.000102
3520.499	1.600452	0.000102
3521.719	1.600472	0.000102
3522.94	1.600492	0.000102
3524.161	1.600512	0.000102
3525.382	1.600532	0.000102
3526.602	1.600552	0.000101
3527.823	1.600572	0.000101
3529.044	1.600592	0.000101
3530.264	1.600612	0.000101
3531.485	1.600632	0.000101
3532.706	1.600652	0.000101
3533.926	1.600671	0.000101
3535.147	1.600691	0.000101
3536.368	1.600711	0.000101
3537.589	1.600731	0.0001
3538.809	1.60075	0.0001
3540.03	1.60077	0.0001
3541.251	1.60079	0.0001
3542.471	1.600809	0.0001
3543.692	1.600829	0.0001
3544.913	1.600849	0.0001
3546.133	1.600868	0.0001
3547.354	1.600888	0.0001
3548.575	1.600907	0.000099
3549.796	1.600927	0.000099
3551.016	1.600946	0.000099
3552.237	1.600966	0.000099
3553.458	1.600985	0.000099
3554.678	1.601005	0.000099
3555.899	1.601024	0.000099
3557.12	1.601044	0.000099
3558.34	1.601063	0.000099
3559.561	1.601082	0.000099
3560.782	1.601102	0.000098
3562.003	1.601121	0.000098
3563.223	1.60114	0.000098
3564.444	1.601159	0.000098
3565.665	1.601179	0.000098
3566.885	1.601198	0.000098
3568.106	1.601217	0.000098
3569.327	1.601236	0.000098
3570.547	1.601255	0.000098
3571.768	1.601275	0.000097
3572.989	1.601294	0.000097
3574.21	1.601313	0.000097
3575.43	1.601332	0.000097
3576.651	1.601351	0.000097
3577.872	1.60137	0.000097
3579.092	1.601389	0.000097
3580.313	1.601408	0.000097
3581.534	1.601427	0.000096
3582.754	1.601446	0.000096
3583.975	1.601465	0.000096
3585.196	1.601484	0.000096
3586.417	1.601503	0.000096
3587.637	1.601521	0.000096
3588.858	1.60154	0.000096
3590.079	1.601559	0.000096
3591.299	1.601578	0.000096
3592.52	1.601597	0.000096
3593.741	1.601616	0.000095
3594.961	1.601634	0.000095
3596.182	1.601653	0.000095
3597.403	1.601672	0.000095
3598.624	1.60169	0.000095
3599.844	1.601709	0.000095
3601.065	1.601728	0.000095
3602.286	1.601746	0.000095
3603.506	1.601765	0.000095
3604.727	1.601784	0.000095
3605.948	1.601802	0.000094
3607.168	1.601821	0.000094
3608.389	1.601839	0.000094
3609.61	1.601858	0.000094
3610.831	1.601876	0.000094
3612.051	1.601895	0.000094
3613.272	1.601913	0.000094
3614.493	1.601931	0.000094
3615.713	1.60195	0.000094
3616.934	1.601968	0.000093
3618.155	1.601987	0.000093
3619.375	1.602005	0.000093
3620.596	1.602023	0.000093
3621.817	1.602042	0.000093
3623.038	1.60206	0.000093
3624.258	1.602078	0.000093
3625.479	1.602096	0.000093
3626.7	1.602115	0.000093
3627.92	1.602133	0.000093
3629.141	1.602151	0.000092
3630.362	1.602169	0.000092
3631.582	1.602187	0.000092
3632.803	1.602205	0.000092
3634.024	1.602224	0.000092
3635.245	1.602242	0.000092
3636.465	1.60226	0.000092
3637.686	1.602278	0.000092
3638.907	1.602296	0.000092
3640.127	1.602314	0.000092
3641.348	1.602332	0.000092
3642.569	1.60235	0.000091
3643.789	1.602368	0.000091
3645.01	1.602386	0.000091
3646.231	1.602404	0.000091
3647.452	1.602421	0.000091
3648.672	1.602439	0.000091
3649.893	1.602457	0.000091
3651.114	1.602475	0.000091
3652.334	1.602493	0.000091
3653.555	1.602511	0.000091
3654.776	1.602528	0.00009
3655.996	1.602546	0.00009
3657.217	1.602564	0.00009
3658.438	1.602582	0.00009
3659.659	1.602599	0.00009
3660.879	1.602617	0.00009
3662.1	1.602635	0.00009
3663.321	1.602652	0.00009
3664.541	1.60267	0.00009
3665.762	1.602687	0.00009
3666.983	1.602705	0.000089
3668.203	1.602723	0.000089
3669.424	1.60274	0.000089
3670.645	1.602758	0.000089
3671.866	1.602775	0.000089
3673.086	1.602793	0.000089
3674.307	1.60281	0.000089
3675.528	1.602828	0.000089
3676.748	1.602845	0.000089
3677.969	1.602863	0.000089
3679.19	1.60288	0.000089
3680.41	1.602897	0.000088
3681.631	1.602915	0.000088
3682.852	1.602932	0.000088
3684.073	1.602949	0.000088
3685.293	1.602967	0.000088
3686.514	1.602984	0.000088
3687.735	1.603001	0.000088
3688.955	1.603019	0.000088
3690.176	1.603036	0.000088
3691.397	1.603053	0.000088
3692.617	1.60307	0.000088
3693.838	1.603087	0.000087
3695.059	1.603105	0.000087
3696.28	1.603122	0.000087
3697.5	1.603139	0.000087
3698.721	1.603156	0.000087
3699.942	1.603173	0.000087
3701.162	1.60319	0.000087
3702.383	1.603207	0.000087
3703.604	1.603224	0.000087
3704.824	1.603241	0.000087
3706.045	1.603258	0.000087
3707.266	1.603275	0.000086
3708.487	1.603292	0.000086
3709.707	1.603309	0.000086
3710.928	1.603326	0.000086
3712.149	1.603343	0.000086
3713.369	1.60336	0.000086
3714.59	1.603377	0.000086
3715.811	1.603394	0.000086
3717.031	1.60341	0.000086
3718.252	1.603427	0.000086
3719.473	1.603444	0.000086
3720.694	1.603461	0.000086
3721.914	1.603478	0.000085
3723.135	1.603495	0.000085
3724.356	1.603511	0.000085
3725.576	1.603528	0.000085
3726.797	1.603545	0.000085
3728.018	1.603561	0.000085
3729.238	1.603578	0.000085
3730.459	1.603595	0.000085
3731.68	1.603611	0.000085
3732.901	1.603628	0.000085
3734.121	1.603644	0.000085
3735.342	1.603661	0.000084
3736.563	1.603678	0.000084
3737.783	1.603694	0.000084
3739.004	1.603711	0.000084
3740.225	1.603727	0.000084
3741.445	1.603744	0.000084
3742.666	1.60376	0.000084
3743.887	1.603777	0.000084
3745.108	1.603793	0.000084
3746.328	1.60381	0.000084
3747.549	1.603826	0.000084
3748.77	1.603842	0.000084
3749.99	1.603859	0.000083
3751.211	1.603875	0.000083
3752.432	1.603891	0.000083
3753.652	1.603908	0.000083
3754.873	1.603924	0.000083
3756.094	1.60394	0.000083
3757.315	1.603957	0.000083
3758.535	1.603973	0.000083
3759.756	1.603989	0.000083
3760.977	1.604005	0.000083
3762.197	1.604022	0.000083
3763.418	1.604038	0.000082
3764.639	1.604054	0.000082
3765.859	1.60407	0.000082
3767.08	1.604086	0.000082
3768.301	1.604102	0.000082
3769.522	1.604118	0.000082
3770.742	1.604135	0.000082
3771.963	1.604151	0.000082
3773.184	1.604167	0.000082
3774.404	1.604183	0.000082
3775.625	1.604199	0.000082
3776.846	1.604215	0.000082
3778.066	1.604231	0.000081
3779.287	1.604247	0.000081
3780.508	1.604263	0.000081
3781.729	1.604279	0.000081
3782.949	1.604295	0.000081
3784.17	1.604311	0.000081
3785.391	1.604326	0.000081
3786.611	1.604342	0.000081
3787.832	1.604358	0.000081
3789.053	1.604374	0.000081
3790.273	1.60439	0.000081
3791.494	1.604406	0.000081
3792.715	1.604421	0.00008
3793.936	1.604437	0.00008
3795.156	1.604453	0.00008
3796.377	1.604469	0.00008
3797.598	1.604484	0.00008
3798.818	1.6045	0.00008
3800.039	1.604516	0.00008
3801.26	1.604532	0.00008
3802.48	1.604547	0.00008
3803.701	1.604563	0.00008
3804.922	1.604578	0.00008
3806.143	1.604594	0.00008
3807.363	1.60461	0.00008
3808.584	1.604625	0.000079
3809.805	1.604641	0.000079
3811.025	1.604656	0.000079
3812.246	1.604672	0.000079
3813.467	1.604687	0.000079
3814.687	1.604703	0.000079
3815.908	1.604718	0.000079
3817.129	1.604734	0.000079
3818.35	1.604749	0.000079
3819.57	1.604765	0.000079
3820.791	1.60478	0.000079
3822.012	1.604796	0.000079
3823.232	1.604811	0.000078
3824.453	1.604826	0.000078
3825.674	1.604842	0.000078
3826.894	1.604857	0.000078
3828.115	1.604873	0.000078
3829.336	1.604888	0.000078
3830.557	1.604903	0.000078
3831.777	1.604918	0.000078
3832.998	1.604934	0.000078
3834.219	1.604949	0.000078
3835.439	1.604964	0.000078
3836.66	1.604979	0.000078
3837.881	1.604995	0.000078
3839.101	1.60501	0.000077
3840.322	1.605025	0.000077
3841.543	1.60504	0.000077
3842.764	1.605055	0.000077
3843.984	1.60507	0.000077
3845.205	1.605086	0.000077
3846.426	1.605101	0.000077
3847.646	1.605116	0.000077
3848.867	1.605131	0.000077
3850.088	1.605146	0.000077
3851.308	1.605161	0.000077
3852.529	1.605176	0.000077
3853.75	1.605191	0.000077
3854.971	1.605206	0.000076
3856.191	1.605221	0.000076
3857.412	1.605236	0.000076
3858.633	1.605251	0.000076
3859.853	1.605266	0.000076
3861.074	1.605281	0.000076
3862.295	1.605296	0.000076
3863.515	1.605311	0.000076
3864.736	1.605325	0.000076
3865.957	1.60534	0.000076
3867.178	1.605355	0.000076
3868.398	1.60537	0.000076
3869.619	1.605385	0.000076
3870.84	1.6054	0.000075
3872.06	1.605414	0.000075
3873.281	1.605429	0.000075
3874.502	1.605444	0.000075
3875.722	1.605459	0.000075
3876.943	1.605473	0.000075
3878.164	1.605488	0.000075
3879.385	1.605503	0.000075
3880.605	1.605518	0.000075
3881.826	1.605532	0.000075
3883.047	1.605547	0.000075
3884.267	1.605561	0.000075
3885.488	1.605576	0.000074
3886.709	1.605591	0.000074
3887.929	1.605605	0.000074
3889.15	1.60562	0.000074
3890.371	1.605634	0.000074
3891.592	1.605649	0.000074
3892.812	1.605664	0.000074
3894.033	1.605678	0.000074
3895.254	1.605693	0.000074
3896.474	1.605707	0.000074
3897.695	1.605722	0.000074
3898.916	1.605736	0.000074
3900.136	1.605751	0.000074
3901.357	1.605765	0.000073
3902.578	1.605779	0.000073
3903.799	1.605794	0.000073
3905.019	1.605808	0.000073
3906.24	1.605823	0.000073
3907.461	1.605837	0.000073
3908.681	1.605851	0.000073
3909.902	1.605866	0.000073
3911.123	1.60588	0.000073
3912.343	1.605894	0.000073
3913.564	1.605909	0.000073
3914.785	1.605923	0.000073
3916.006	1.605937	0.000073
3917.226	1.605951	0.000073
3918.447	1.605966	0.000072
3919.668	1.60598	0.000072
3920.888	1.605994	0.000072
3922.109	1.606008	0.000072
3923.33	1.606022	0.000072
3924.55	1.606037	0.000072
3925.771	1.606051	0.000072
3926.992	1.606065	0.000072
3928.213	1.606079	0.000072
3929.433	1.606093	0.000072
3930.654	1.606107	0.000072
3931.875	1.606121	0.000072
3933.095	1.606135	0.000072
3934.316	1.60615	0.000072
3935.537	1.606164	0.000071
3936.757	1.606178	0.000071
3937.978	1.606192	0.000071
3939.199	1.606206	0.000071
3940.42	1.60622	0.000071
3941.64	1.606233	0.000071
3942.861	1.606247	0.000071
3944.082	1.606261	0.000071
3945.302	1.606275	0.000071
3946.523	1.606289	0.000071
3947.744	1.606303	0.000071
3948.964	1.606317	0.000071
3950.185	1.606331	0.000071
3951.406	1.606345	0.000071
3952.627	1.606359	0.000071
3953.847	1.606372	0.00007
3955.068	1.606386	0.00007
3956.289	1.6064	0.00007
3957.509	1.606414	0.00007
3958.73	1.606428	0.00007
3959.951	1.606441	0.00007
3961.171	1.606455	0.00007
3962.392	1.606469	0.00007
3963.613	1.606483	0.00007
3964.834	1.606497	0.00007
3966.054	1.60651	0.00007
3967.275	1.606524	0.00007
3968.496	1.606538	0.00007
3969.716	1.606551	0.00007
3970.937	1.606565	0.000069
3972.158	1.606578	0.000069
3973.378	1.606592	0.000069
3974.599	1.606606	0.000069
3975.82	1.606619	0.000069
3977.041	1.606633	0.000069
3978.261	1.606647	0.000069
3979.482	1.60666	0.000069
3980.703	1.606674	0.000069
3981.923	1.606687	0.000069
3983.144	1.606701	0.000069
3984.365	1.606714	0.000069
3985.585	1.606728	0.000069
3986.806	1.606741	0.000069
3988.027	1.606755	0.000069
3989.248	1.606768	0.000068
3990.468	1.606781	0.000068
3991.689	1.606795	0.000068
3992.91	1.606808	0.000068
3994.13	1.606822	0.000068
3995.351	1.606835	0.000068
3996.572	1.606848	0.000068
3997.792	1.606862	0.000068
3999.013	1.606875	0.000068
4000.234	1.606889	0.000068
4001.455	1.606902	0.000068
4002.675	1.606915	0.000068
4003.896	1.606929	0.000068
4005.117	1.606942	0.000068
4006.337	1.606955	0.000068
4007.558	1.606968	0.000068
4008.779	1.606982	0.000067
4009.999	1.606995	0.000067
4011.22	1.607008	0.000067
4012.441	1.607021	0.000067
4013.662	1.607034	0.000067
4014.882	1.607048	0.000067
4016.103	1.607061	0.000067
4017.324	1.607074	0.000067
4018.544	1.607087	0.000067
4019.765	1.6071	0.000067
4020.986	1.607113	0.000067
4022.206	1.607126	0.000067
4023.427	1.60714	0.000067
4024.648	1.607153	0.000067
4025.869	1.607166	0.000067
4027.089	1.607179	0.000066
4028.31	1.607192	0.000066
4029.531	1.607205	0.000066
4030.751	1.607218	0.000066
4031.972	1.607231	0.000066
4033.193	1.607244	0.000066
4034.413	1.607257	0.000066
4035.634	1.60727	0.000066
4036.855	1.607283	0.000066
4038.076	1.607296	0.000066
4039.296	1.607309	0.000066
4040.517	1.607322	0.000066
4041.738	1.607334	0.000066
4042.958	1.607347	0.000066
4044.179	1.60736	0.000066
4045.4	1.607373	0.000066
4046.62	1.607386	0.000065
4047.841	1.607399	0.000065
4049.062	1.607412	0.000065
4050.283	1.607424	0.000065
4051.503	1.607437	0.000065
4052.724	1.60745	0.000065
4053.945	1.607463	0.000065
4055.165	1.607476	0.000065
4056.386	1.607489	0.000065
4057.607	1.607501	0.000065
4058.827	1.607514	0.000065
4060.048	1.607527	0.000065
4061.269	1.607539	0.000065
4062.49	1.607552	0.000065
4063.71	1.607565	0.000065
4064.931	1.607577	0.000065
4066.152	1.60759	0.000064
4067.372	1.607603	0.000064
4068.593	1.607615	0.000064
4069.814	1.607628	0.000064
4071.034	1.607641	0.000064
4072.255	1.607653	0.000064
4073.476	1.607666	0.000064
4074.697	1.607678	0.000064
4075.917	1.607691	0.000064
4077.138	1.607704	0.000064
4078.359	1.607716	0.000064
4079.579	1.607729	0.000064
4080.8	1.607741	0.000064
4082.021	1.607754	0.000064
4083.241	1.607766	0.000064
4084.462	1.607779	0.000064
4085.683	1.607791	0.000064
4086.904	1.607804	0.000064
4088.124	1.607816	0.000064
4089.345	1.607828	0.000063
4090.566	1.607841	0.000063
4091.786	1.607853	0.000063
4093.007	1.607866	0.000063
4094.228	1.607878	0.000063
4095.448	1.607891	0.000063
4096.669	1.607903	0.000063
4097.89	1.607915	0.000063
4099.111	1.607928	0.000063
4100.331	1.60794	0.000063
4101.552	1.607952	0.000063
4102.773	1.607965	0.000063
4103.993	1.607977	0.000063
4105.214	1.607989	0.000063
4106.435	1.608001	0.000063
4107.655	1.608014	0.000063
4108.876	1.608026	0.000063
4110.097	1.608038	0.000062
4111.318	1.60805	0.000062
4112.538	1.608063	0.000062
4113.759	1.608075	0.000062
4114.98	1.608087	0.000062
4116.2	1.608099	0.000062
4117.421	1.608111	0.000062
4118.642	1.608124	0.000062
4119.862	1.608136	0.000062
4121.083	1.608148	0.000062
4122.304	1.60816	0.000062
4123.525	1.608172	0.000062
4124.745	1.608184	0.000062
4125.966	1.608196	0.000062
4127.187	1.608208	0.000062
4128.407	1.608221	0.000062
4129.628	1.608232	0.000062
4130.849	1.608245	0.000061
4132.069	1.608257	0.000061
4133.29	1.608269	0.000061
4134.511	1.608281	0.000061
4135.732	1.608293	0.000061
4136.952	1.608305	0.000061
4138.173	1.608317	0.000061
4139.394	1.608329	0.000061
4140.614	1.608341	0.000061
4141.835	1.608353	0.000061
4143.056	1.608364	0.000061
4144.276	1.608376	0.000061
4145.497	1.608388	0.000061
4146.718	1.6084	0.000061
4147.939	1.608412	0.000061
4149.159	1.608424	0.000061
4150.38	1.608436	0.00006
4151.601	1.608448	0.00006
4152.821	1.60846	0.00006
4154.042	1.608472	0.00006
4155.263	1.608483	0.00006
4156.483	1.608495	0.00006
4157.704	1.608507	0.00006
4158.925	1.608519	0.00006
4160.146	1.608531	0.00006
4161.366	1.608542	0.00006
4162.587	1.608554	0.00006
4163.808	1.608566	0.00006
4165.028	1.608578	0.00006
4166.249	1.608589	0.00006
4167.47	1.608601	0.00006
4168.69	1.608613	0.00006
4169.911	1.608624	0.00006
4171.132	1.608636	0.00006
4172.353	1.608648	0.000059
4173.573	1.60866	0.000059
4174.794	1.608671	0.000059
4176.015	1.608683	0.000059
4177.235	1.608694	0.000059
4178.456	1.608706	0.000059
4179.677	1.608718	0.000059
4180.897	1.608729	0.000059
4182.118	1.608741	0.000059
4183.339	1.608752	0.000059
4184.56	1.608764	0.000059
4185.78	1.608775	0.000059
4187.001	1.608787	0.000059
4188.222	1.608799	0.000059
4189.442	1.60881	0.000059
4190.663	1.608822	0.000059
4191.884	1.608833	0.000059
4193.104	1.608845	0.000059
4194.325	1.608856	0.000059
4195.546	1.608868	0.000059
4196.767	1.608879	0.000058
4197.987	1.608891	0.000058
4199.208	1.608902	0.000058
4200.429	1.608913	0.000058
4201.649	1.608925	0.000058
4202.87	1.608936	0.000058
4204.091	1.608948	0.000058
4205.311	1.608959	0.000058
4206.532	1.60897	0.000058
4207.753	1.608982	0.000058
4208.974	1.608993	0.000058
4210.194	1.609004	0.000058
4211.415	1.609016	0.000058
4212.636	1.609027	0.000058
4213.856	1.609038	0.000058
4215.077	1.60905	0.000058
4216.298	1.609061	0.000058
4217.518	1.609072	0.000058
4218.739	1.609084	0.000058
4219.96	1.609095	0.000057
4221.181	1.609106	0.000057
4222.401	1.609117	0.000057
4223.622	1.609129	0.000057
4224.843	1.60914	0.000057
4226.063	1.609151	0.000057
4227.284	1.609162	0.000057
4228.505	1.609173	0.000057
4229.725	1.609185	0.000057
4230.946	1.609196	0.000057
4232.167	1.609207	0.000057
4233.388	1.609218	0.000057
4234.608	1.609229	0.000057
4235.829	1.60924	0.000057
4237.05	1.609251	0.000057
4238.27	1.609263	0.000057
4239.491	1.609274	0.000057
4240.712	1.609285	0.000057
4241.932	1.609296	0.000057
4243.153	1.609307	0.000057
4244.374	1.609318	0.000056
4245.595	1.609329	0.000056
4246.815	1.60934	0.000056
4248.036	1.609351	0.000056
4249.257	1.609362	0.000056
4250.477	1.609373	0.000056
4251.698	1.609384	0.000056
4252.919	1.609395	0.000056
4254.139	1.609406	0.000056
4255.36	1.609417	0.000056
4256.581	1.609428	0.000056
4257.802	1.609439	0.000056
4259.022	1.60945	0.000056
4260.243	1.609461	0.000056
4261.464	1.609472	0.000056
4262.684	1.609483	0.000056
4263.905	1.609494	0.000056
4265.126	1.609505	0.000056
4266.346	1.609516	0.000056
4267.567	1.609526	0.000055
4268.788	1.609537	0.000055
4270.009	1.609548	0.000055
4271.229	1.609559	0.000055
4272.45	1.60957	0.000055
4273.671	1.609581	0.000055
4274.891	1.609591	0.000055
4276.112	1.609602	0.000055
4277.333	1.609613	0.000055
4278.553	1.609624	0.000055
4279.774	1.609635	0.000055
4280.995	1.609645	0.000055
4282.216	1.609656	0.000055
4283.436	1.609667	0.000055
4284.657	1.609678	0.000055
4285.878	1.609688	0.000055
4287.098	1.609699	0.000055
4288.319	1.60971	0.000055
4289.54	1.60972	0.000055
4290.76	1.609731	0.000055
4291.981	1.609742	0.000055
4293.202	1.609753	0.000054
4294.423	1.609763	0.000054
4295.643	1.609774	0.000054
4296.864	1.609785	0.000054
4298.085	1.609795	0.000054
4299.305	1.609806	0.000054
4300.526	1.609816	0.000054
4301.747	1.609827	0.000054
4302.967	1.609838	0.000054
4304.188	1.609848	0.000054
4305.409	1.609859	0.000054
4306.63	1.609869	0.000054
4307.85	1.60988	0.000054
4309.071	1.60989	0.000054
4310.292	1.609901	0.000054
4311.512	1.609912	0.000054
4312.733	1.609922	0.000054
4313.954	1.609933	0.000054
4315.174	1.609943	0.000054
4316.395	1.609954	0.000053
4317.616	1.609964	0.000053
4318.837	1.609975	0.000053
4320.057	1.609985	0.000053
4321.278	1.609995	0.000053
4322.499	1.610006	0.000053
4323.719	1.610016	0.000053
4324.94	1.610027	0.000053
4326.161	1.610037	0.000053
4327.381	1.610048	0.000053
4328.602	1.610058	0.000053
4329.823	1.610068	0.000053
4331.044	1.610079	0.000053
4332.264	1.610089	0.000053
4333.485	1.6101	0.000053
4334.706	1.61011	0.000053
4335.926	1.61012	0.000053
4337.147	1.610131	0.000053
4338.368	1.610141	0.000053
4339.588	1.610151	0.000053
4340.809	1.610162	0.000053
4342.03	1.610172	0.000052
4343.251	1.610182	0.000052
4344.471	1.610192	0.000052
4345.692	1.610203	0.000052
4346.913	1.610213	0.000052
4348.133	1.610223	0.000052
4349.354	1.610233	0.000052
4350.575	1.610244	0.000052
4351.795	1.610254	0.000052
4353.016	1.610264	0.000052
4354.237	1.610274	0.000052
4355.458	1.610285	0.000052
4356.678	1.610295	0.000052
4357.899	1.610305	0.000052
4359.12	1.610315	0.000052
4360.34	1.610325	0.000052
4361.561	1.610335	0.000052
4362.782	1.610346	0.000052
4364.002	1.610356	0.000052
4365.223	1.610366	0.000052
4366.444	1.610376	0.000052
4367.665	1.610386	0.000052
4368.885	1.610396	0.000051
4370.106	1.610406	0.000051
4371.327	1.610416	0.000051
4372.547	1.610426	0.000051
4373.768	1.610436	0.000051
4374.989	1.610447	0.000051
4376.209	1.610457	0.000051
4377.43	1.610467	0.000051
4378.651	1.610477	0.000051
4379.872	1.610487	0.000051
4381.092	1.610497	0.000051
4382.313	1.610507	0.000051
4383.534	1.610517	0.000051
4384.754	1.610527	0.000051
4385.975	1.610537	0.000051
4387.196	1.610547	0.000051
4388.416	1.610557	0.000051
4389.637	1.610567	0.000051
4390.858	1.610577	0.000051
4392.079	1.610586	0.000051
4393.299	1.610596	0.000051
4394.52	1.610606	0.000051
4395.741	1.610616	0.00005
4396.961	1.610626	0.00005
4398.182	1.610636	0.00005
4399.403	1.610646	0.00005
4400.623	1.610656	0.00005
4401.844	1.610666	0.00005
4403.065	1.610676	0.00005
4404.286	1.610685	0.00005
4405.506	1.610695	0.00005
4406.727	1.610705	0.00005
4407.948	1.610715	0.00005
4409.168	1.610725	0.00005
4410.389	1.610734	0.00005
4411.61	1.610744	0.00005
4412.83	1.610754	0.00005
4414.051	1.610764	0.00005
4415.272	1.610774	0.00005
4416.493	1.610783	0.00005
4417.713	1.610793	0.00005
4418.934	1.610803	0.00005
4420.155	1.610813	0.00005
4421.375	1.610822	0.00005
4422.596	1.610832	0.00005
4423.817	1.610842	0.000049
4425.037	1.610852	0.000049
4426.258	1.610861	0.000049
4427.479	1.610871	0.000049
4428.7	1.610881	0.000049
4429.92	1.61089	0.000049
4431.141	1.6109	0.000049
4432.362	1.61091	0.000049
4433.582	1.610919	0.000049
4434.803	1.610929	0.000049
4436.024	1.610938	0.000049
4437.244	1.610948	0.000049
4438.465	1.610958	0.000049
4439.686	1.610967	0.000049
4440.907	1.610977	0.000049
4442.127	1.610987	0.000049
4443.348	1.610996	0.000049
4444.569	1.611006	0.000049
4445.789	1.611015	0.000049
4447.01	1.611025	0.000049
4448.231	1.611034	0.000049
4449.451	1.611044	0.000049
4450.672	1.611053	0.000049
4451.893	1.611063	0.000049
4453.114	1.611073	0.000048
4454.334	1.611082	0.000048
4455.555	1.611091	0.000048
4456.776	1.611101	0.000048
4457.996	1.61111	0.000048
4459.217	1.61112	0.000048
4460.438	1.611129	0.000048
4461.658	1.611139	0.000048
4462.879	1.611148	0.000048
4464.1	1.611158	0.000048
4465.321	1.611167	0.000048
4466.541	1.611177	0.000048
4467.762	1.611186	0.000048
4468.983	1.611195	0.000048
4470.203	1.611205	0.000048
4471.424	1.611214	0.000048
4472.645	1.611224	0.000048
4473.865	1.611233	0.000048
4475.086	1.611242	0.000048
4476.307	1.611252	0.000048
4477.528	1.611261	0.000048
4478.748	1.611271	0.000048
4479.969	1.61128	0.000048
4481.19	1.611289	0.000048
4482.41	1.611298	0.000048
4483.631	1.611308	0.000048
4484.852	1.611317	0.000048
4486.072	1.611326	0.000047
4487.293	1.611336	0.000047
4488.514	1.611345	0.000047
4489.735	1.611354	0.000047
4490.955	1.611364	0.000047
4492.176	1.611373	0.000047
4493.397	1.611382	0.000047
4494.617	1.611391	0.000047
4495.838	1.6114	0.000047
4497.059	1.61141	0.000047
4498.279	1.611419	0.000047
4499.5	1.611428	0.000047
4500.721	1.611437	0.000047
4501.942	1.611447	0.000047
4503.162	1.611456	0.000047
4504.383	1.611465	0.000047
4505.604	1.611474	0.000047
4506.824	1.611483	0.000047
4508.045	1.611492	0.000047
4509.266	1.611502	0.000047
4510.486	1.611511	0.000047
4511.707	1.61152	0.000047
4512.928	1.611529	0.000047
4514.149	1.611538	0.000047
4515.369	1.611547	0.000047
4516.59	1.611556	0.000046
4517.811	1.611565	0.000046
4519.031	1.611575	0.000046
4520.252	1.611584	0.000046
4521.473	1.611593	0.000046
4522.693	1.611602	0.000046
4523.914	1.611611	0.000046
4525.135	1.61162	0.000046
4526.356	1.611629	0.000046
4527.576	1.611638	0.000046
4528.797	1.611647	0.000046
4530.018	1.611656	0.000046
4531.238	1.611665	0.000046
4532.459	1.611674	0.000046
4533.68	1.611683	0.000046
4534.9	1.611692	0.000046
4536.121	1.611701	0.000046
4537.342	1.61171	0.000046
4538.563	1.611719	0.000046
4539.783	1.611728	0.000046
4541.004	1.611737	0.000046
4542.225	1.611746	0.000046
4543.445	1.611755	0.000046
4544.666	1.611764	0.000046
4545.887	1.611773	0.000046
4547.107	1.611781	0.000046
4548.328	1.61179	0.000045
4549.549	1.611799	0.000045
4550.77	1.611808	0.000045
4551.99	1.611817	0.000045
4553.211	1.611826	0.000045
4554.432	1.611835	0.000045
4555.652	1.611844	0.000045
4556.873	1.611853	0.000045
4558.094	1.611861	0.000045
4559.314	1.61187	0.000045
4560.535	1.611879	0.000045
4561.756	1.611888	0.000045
4562.977	1.611897	0.000045
4564.197	1.611906	0.000045
4565.418	1.611914	0.000045
4566.639	1.611923	0.000045
4567.859	1.611932	0.000045
4569.08	1.611941	0.000045
4570.301	1.611949	0.000045
4571.521	1.611958	0.000045
4572.742	1.611967	0.000045
4573.963	1.611976	0.000045
4575.184	1.611984	0.000045
4576.404	1.611993	0.000045
4577.625	1.612002	0.000045
4578.846	1.612011	0.000045
4580.066	1.612019	0.000045
4581.287	1.612028	0.000044
4582.508	1.612037	0.000044
4583.728	1.612046	0.000044
4584.949	1.612054	0.000044
4586.17	1.612063	0.000044
4587.391	1.612072	0.000044
4588.611	1.61208	0.000044
4589.832	1.612089	0.000044
4591.053	1.612098	0.000044
4592.273	1.612106	0.000044
4593.494	1.612115	0.000044
4594.715	1.612123	0.000044
4595.935	1.612132	0.000044
4597.156	1.612141	0.000044
4598.377	1.612149	0.000044
4599.598	1.612158	0.000044
4600.818	1.612166	0.000044
4602.039	1.612175	0.000044
4603.26	1.612184	0.000044
4604.48	1.612192	0.000044
4605.701	1.612201	0.000044
4606.922	1.612209	0.000044
4608.142	1.612218	0.000044
4609.363	1.612226	0.000044
4610.584	1.612235	0.000044
4611.805	1.612243	0.000044
4613.025	1.612252	0.000044
4614.246	1.612261	0.000043
4615.467	1.612269	0.000043
4616.687	1.612278	0.000043
4617.908	1.612286	0.000043
4619.129	1.612294	0.000043
4620.349	1.612303	0.000043
4621.57	1.612311	0.000043
4622.791	1.61232	0.000043
4624.012	1.612328	0.000043
4625.232	1.612337	0.000043
4626.453	1.612345	0.000043
4627.674	1.612354	0.000043
4628.894	1.612362	0.000043
4630.115	1.612371	0.000043
4631.336	1.612379	0.000043
4632.556	1.612387	0.000043
4633.777	1.612396	0.000043
4634.998	1.612404	0.000043
4636.219	1.612413	0.000043
4637.439	1.612421	0.000043
4638.66	1.612429	0.000043
4639.881	1.612438	0.000043
4641.101	1.612446	0.000043
4642.322	1.612455	0.000043
4643.543	1.612463	0.000043
4644.763	1.612471	0.000043
4645.984	1.612479	0.000042
4647.205	1.612488	0.000042
4648.426	1.612496	0.000042
4649.646	1.612504	0.000042
4650.867	1.612513	0.000042
4652.088	1.612521	0.000042
4653.308	1.612529	0.000042
4654.529	1.612538	0.000042
4655.75	1.612546	0.000042
4656.97	1.612554	0.000042
4658.191	1.612563	0.000042
4659.412	1.612571	0.000042
4660.633	1.612579	0.000042
4661.853	1.612587	0.000042
4663.074	1.612595	0.000042
4664.295	1.612604	0.000042
4665.515	1.612612	0.000042
4666.736	1.61262	0.000042
4667.957	1.612628	0.000042
4669.177	1.612637	0.000042
4670.398	1.612645	0.000042
4671.619	1.612653	0.000042
4672.84	1.612661	0.000042
4674.06	1.612669	0.000042
4675.281	1.612677	0.000042
4676.502	1.612686	0.000042
4677.722	1.612694	0.000042
4678.943	1.612702	0.000042
4680.164	1.61271	0.000042
4681.384	1.612718	0.000041
4682.605	1.612726	0.000041
4683.826	1.612735	0.000041
4685.047	1.612743	0.000041
4686.267	1.612751	0.000041
4687.488	1.612759	0.000041
4688.709	1.612767	0.000041
4689.929	1.612775	0.000041
4691.15	1.612783	0.000041
4692.371	1.612791	0.000041
4693.591	1.612799	0.000041
4694.812	1.612807	0.000041
4696.033	1.612815	0.000041
4697.254	1.612823	0.000041
4698.474	1.612832	0.000041
4699.695	1.61284	0.000041
4700.916	1.612848	0.000041
4702.136	1.612856	0.000041
4703.357	1.612864	0.000041
4704.578	1.612872	0.000041
4705.798	1.61288	0.000041
4707.019	1.612888	0.000041
4708.24	1.612896	0.000041
4709.461	1.612904	0.000041
4710.681	1.612912	0.000041
4711.902	1.61292	0.000041
4713.123	1.612928	0.000041
4714.343	1.612936	0.000041
4715.564	1.612944	0.000041
4716.785	1.612952	0.000041
4718.005	1.61296	0.00004
4719.226	1.612967	0.00004
4720.447	1.612975	0.00004
4721.668	1.612983	0.00004
4722.888	1.612991	0.00004
4724.109	1.612999	0.00004
4725.33	1.613007	0.00004
4726.55	1.613015	0.00004
4727.771	1.613023	0.00004
4728.992	1.613031	0.00004
4730.212	1.613039	0.00004
4731.433	1.613046	0.00004
4732.654	1.613054	0.00004
4733.875	1.613062	0.00004
4735.095	1.61307	0.00004
4736.316	1.613078	0.00004
4737.537	1.613086	0.00004
4738.757	1.613093	0.00004
4739.978	1.613101	0.00004
4741.199	1.613109	0.00004
4742.419	1.613117	0.00004
4743.64	1.613125	0.00004
4744.861	1.613133	0.00004
4746.082	1.61314	0.00004
4747.302	1.613148	0.00004
4748.523	1.613156	0.00004
4749.744	1.613164	0.00004
4750.964	1.613172	0.00004
4752.185	1.613179	0.00004
4753.406	1.613187	0.00004
4754.626	1.613195	0.00004
4755.847	1.613203	0.000039
4757.068	1.61321	0.000039
4758.289	1.613218	0.000039
4759.509	1.613226	0.000039
4760.73	1.613234	0.000039
4761.951	1.613241	0.000039
4763.171	1.613249	0.000039
4764.392	1.613257	0.000039
4765.613	1.613264	0.000039
4766.833	1.613272	0.000039
4768.054	1.61328	0.000039
4769.275	1.613287	0.000039
4770.496	1.613295	0.000039
4771.716	1.613303	0.000039
4772.937	1.61331	0.000039
4774.158	1.613318	0.000039
4775.378	1.613326	0.000039
4776.599	1.613333	0.000039
4777.82	1.613341	0.000039
4779.04	1.613349	0.000039
4780.261	1.613356	0.000039
4781.482	1.613364	0.000039
4782.703	1.613371	0.000039
4783.923	1.613379	0.000039
4785.144	1.613387	0.000039
4786.365	1.613394	0.000039
4787.585	1.613402	0.000039
4788.806	1.61341	0.000039
4790.027	1.613417	0.000039
4791.247	1.613425	0.000039
4792.468	1.613432	0.000039
4793.689	1.61344	0.000039
4794.91	1.613447	0.000039
4796.13	1.613455	0.000038
4797.351	1.613462	0.000038
4798.572	1.61347	0.000038
4799.792	1.613478	0.000038
4801.013	1.613485	0.000038
4802.234	1.613493	0.000038
4803.454	1.6135	0.000038
4804.675	1.613508	0.000038
4805.896	1.613515	0.000038
4807.117	1.613523	0.000038
4808.337	1.61353	0.000038
4809.558	1.613538	0.000038
4810.779	1.613545	0.000038
4811.999	1.613553	0.000038
4813.22	1.61356	0.000038
4814.441	1.613567	0.000038
4815.661	1.613575	0.000038
4816.882	1.613582	0.000038
4818.103	1.61359	0.000038
4819.324	1.613597	0.000038
4820.544	1.613605	0.000038
4821.765	1.613612	0.000038
4822.986	1.613619	0.000038
4824.206	1.613627	0.000038
4825.427	1.613634	0.000038
4826.648	1.613642	0.000038
4827.868	1.613649	0.000038
4829.089	1.613657	0.000038
4830.31	1.613664	0.000038
4831.531	1.613671	0.000038
4832.751	1.613679	0.000038
4833.972	1.613686	0.000038
4835.193	1.613693	0.000038
4836.413	1.613701	0.000038
4837.634	1.613708	0.000038
4838.855	1.613715	0.000038
4840.075	1.613723	0.000037
4841.296	1.61373	0.000037
4842.517	1.613737	0.000037
4843.738	1.613745	0.000037
4844.958	1.613752	0.000037
4846.179	1.613759	0.000037
4847.4	1.613767	0.000037
4848.62	1.613774	0.000037
4849.841	1.613781	0.000037
4851.062	1.613789	0.000037
4852.282	1.613796	0.000037
4853.503	1.613803	0.000037
4854.724	1.61381	0.000037
4855.945	1.613818	0.000037
4857.165	1.613825	0.000037
4858.386	1.613832	0.000037
4859.607	1.613839	0.000037
4860.827	1.613847	0.000037
4862.048	1.613854	0.000037
4863.269	1.613861	0.000037
4864.489	1.613868	0.000037
4865.71	1.613876	0.000037
4866.931	1.613883	0.000037
4868.152	1.61389	0.000037
4869.372	1.613897	0.000037
4870.593	1.613904	0.000037
4871.814	1.613912	0.000037
4873.034	1.613919	0.000037
4874.255	1.613926	0.000037
4875.476	1.613933	0.000037
4876.696	1.61394	0.000037
4877.917	1.613948	0.000037
4879.138	1.613955	0.000037
4880.359	1.613962	0.000037
4881.579	1.613969	0.000037
4882.8	1.613976	0.000036
4884.021	1.613983	0.000036
4885.241	1.61399	0.000036
4886.462	1.613997	0.000036
4887.683	1.614005	0.000036
4888.903	1.614012	0.000036
4890.124	1.614019	0.000036
4891.345	1.614026	0.000036
4892.566	1.614033	0.000036
4893.786	1.61404	0.000036
4895.007	1.614047	0.000036
4896.228	1.614054	0.000036
4897.448	1.614061	0.000036
4898.669	1.614068	0.000036
4899.89	1.614075	0.000036
4901.11	1.614082	0.000036
4902.331	1.614089	0.000036
4903.552	1.614097	0.000036
4904.773	1.614104	0.000036
4905.993	1.614111	0.000036
4907.214	1.614118	0.000036
4908.435	1.614125	0.000036
4909.655	1.614132	0.000036
4910.876	1.614139	0.000036
4912.097	1.614146	0.000036
4913.317	1.614153	0.000036
4914.538	1.61416	0.000036
4915.759	1.614167	0.000036
4916.98	1.614174	0.000036
4918.2	1.614181	0.000036
4919.421	1.614188	0.000036
4920.642	1.614195	0.000036
4921.862	1.614202	0.000036
4923.083	1.614209	0.000036
4924.304	1.614216	0.000036
4925.524	1.614223	0.000036
4926.745	1.614229	0.000035
4927.966	1.614236	0.000035
4929.187	1.614243	0.000035
4930.407	1.61425	0.000035
4931.628	1.614257	0.000035
4932.849	1.614264	0.000035
4934.069	1.614271	0.000035
4935.29	1.614278	0.000035
4936.511	1.614285	0.000035
4937.731	1.614292	0.000035
4938.952	1.614299	0.000035
4940.173	1.614305	0.000035
4941.394	1.614312	0.000035
4942.614	1.614319	0.000035
4943.835	1.614326	0.000035
4945.056	1.614333	0.000035
4946.276	1.61434	0.000035
4947.497	1.614347	0.000035
4948.718	1.61435	0.000035
4949.938	1.614354	0.000035
4951.159	1.61436	0.000035
4952.38	1.614367	0.000035
4953.601	1.614374	0.000035
4954.821	1.614381	0.000035
4956.042	1.614388	0.000035
4957.263	1.614395	0.000035
4958.483	1.614401	0.000035
4959.704	1.614408	0.000035
4960.925	1.614415	0.000035
4962.145	1.614422	0.000035
4963.366	1.614429	0.000035
4964.587	1.614435	0.000035
4965.808	1.614442	0.000035
4967.028	1.614449	0.000035
4968.249	1.614456	0.000035
4969.47	1.614462	0.000035
4970.69	1.614469	0.000035
4971.911	1.614476	0.000035
4973.132	1.614483	0.000035
4974.352	1.614489	0.000034
4975.573	1.614496	0.000034
4976.794	1.614503	0.000034
4978.015	1.61451	0.000034
4979.235	1.614516	0.000034
4980.456	1.614523	0.000034
4981.677	1.61453	0.000034
4982.897	1.614537	0.000034
4984.118	1.614543	0.000034
4985.339	1.61455	0.000034
4986.559	1.614557	0.000034
4987.78	1.614563	0.000034
4989.001	1.61457	0.000034
4990.222	1.614577	0.000034
4991.442	1.614583	0.000034
4992.663	1.61459	0.000034
4993.884	1.614597	0.000034
4995.104	1.614603	0.000034
4996.325	1.61461	0.000034
4997.546	1.614617	0.000034
4998.766	1.614623	0.000034
4999.987	1.61463	0.000034
