#FORMAT = WAVN n dn k dk
#DESCRIPTION = Refractive indices of nitric acid dihydrate at 184 K from 482 to 6981 cm<sup>-1</sup>.
#SUBSTANCE= NAD
#SAMPLEFORM= Thin Film
#TEMPERATURE= 184 K
#CONCENTRATION=   
#DOI=10.1029/94jd02388
#REFERENCE= O. B. Toon, M. A. Tolbert, B. G. Koehler, A. M. Middlebrook, and
## J. Jordan, Infrared optical constants of H2O-ice, amorphous acid
## solutions, and nitric acid hydrates, J. Geophys. Res., 99, 25631 - 25654,
## 1994.
#CONTACT= 
#COMMENT= Derived from 5 spectroscopic measurements of thin crystaline films.
 482 2.032 0.203 2.13E-001 2.1E-002
 501 1.927 0.193 2.64E-001 2.6E-002
 517 1.883 0.188 2.50E-001 2.5E-002
 532 1.888 0.189 2.26E-001 2.3E-002
 548 1.897 0.190 2.52E-001 2.5E-002
 559 1.862 0.186 2.78E-001 2.8E-002
 571 1.810 0.181 2.52E-001 2.5E-002
 590 1.815 0.182 1.60E-001 1.6E-002
 602 1.856 0.186 1.34E-001 1.3E-002
 613 1.902 0.190 1.34E-001 1.3E-002
 621 1.930 0.193 1.55E-001 1.5E-002
 636 1.932 0.193 2.17E-001 2.2E-002
 656 1.921 0.192 2.23E-001 2.2E-002
 671 1.881 0.188 2.84E-001 2.8E-002
 679 1.832 0.183 2.59E-001 2.6E-002
 690 1.828 0.183 1.78E-001 1.8E-002
 698 1.861 0.186 1.43E-001 1.4E-002
 706 1.908 0.191 1.28E-001 1.3E-002
 710 1.936 0.194 1.29E-001 1.3E-002
 714 1.964 0.196 1.39E-001 1.4E-002
 729 2.044 0.204 2.13E-001 2.1E-002
 733 2.075 0.208 2.45E-001 2.5E-002
 737 2.102 0.210 3.12E-001 3.1E-002
 744 2.018 0.202 5.30E-001 5.3E-002
 748 1.891 0.189 5.64E-001 5.6E-002
 756 1.736 0.174 4.13E-001 4.1E-002
 760 1.732 0.173 3.43E-001 3.4E-002
 768 1.765 0.176 2.72E-001 2.7E-002
 775 1.804 0.180 2.53E-001 2.5E-002
 787 1.837 0.184 2.73E-001 2.7E-002
 802 1.789 0.179 3.26E-001 3.3E-002
 810 1.740 0.174 2.99E-001 3.0E-002
 822 1.733 0.173 2.21E-001 2.2E-002
 833 1.763 0.176 1.88E-001 1.9E-002
 868 1.816 0.182 1.62E-001 1.6E-002
 914 1.875 0.188 1.35E-001 1.4E-002
 949 1.939 0.194 1.49E-001 1.5E-002
 991 2.033 0.203 1.97E-001 2.0E-002
1003 2.082 0.208 2.33E-001 2.3E-002
1011 2.129 0.213 2.85E-001 2.9E-002
1014 2.151 0.215 3.34E-001 3.3E-002
1022 2.141 0.214 5.09E-001 5.1E-002
1026 2.055 0.206 6.24E-001 6.2E-002
1030 1.910 0.191 6.73E-001 6.7E-002
1034 1.772 0.177 5.98E-001 6.0E-002
1041 1.698 0.170 3.71E-001 3.7E-002
1045 1.724 0.172 2.98E-001 3.0E-002
1049 1.763 0.176 2.54E-001 2.5E-002
1053 1.799 0.180 2.33E-001 2.3E-002
1068 1.891 0.189 2.28E-001 2.3E-002
1099 1.967 0.197 2.65E-001 2.6E-002
1138 2.002 0.200 3.21E-001 3.2E-002
1165 2.024 0.202 3.46E-001 3.5E-002
1200 2.119 0.212 3.84E-001 3.8E-002
1219 2.218 0.222 4.62E-001 4.6E-002
1234 2.319 0.232 5.98E-001 6.0E-002
1246 2.388 0.239 7.93E-001 7.9E-002
1261 2.237 0.224 1.29E+000 1.3E-001
1269 1.932 0.193 1.42E+000 1.4E-001
1280 1.519 0.152 1.35E+000 1.4E-001
1296 1.238 0.124 9.99E-001 1.0E-001
1300 1.221 0.122 8.73E-001 8.7E-002
1315 1.275 0.127 6.29E-001 6.3E-002
1334 1.386 0.139 4.89E-001 4.9E-002
1358 1.499 0.150 4.11E-001 4.1E-002
1385 1.625 0.162 4.17E-001 4.2E-002
1408 1.723 0.172 4.96E-001 5.0E-002
1427 1.768 0.177 6.69E-001 6.7E-002
1442 1.655 0.166 9.17E-001 9.2E-002
1450 1.472 0.147 1.04E+000 1.0E-001
1454 1.326 0.133 1.05E+000 1.0E-001
1462 1.092 0.109 8.88E-001 8.9E-002
1469 1.034 0.103 6.62E-001 6.6E-002
1477 1.062 0.106 5.08E-001 5.1E-002
1489 1.133 0.113 3.76E-001 3.8E-002
1504 1.225 0.123 2.90E-001 2.9E-002
1531 1.334 0.133 2.32E-001 2.3E-002
1577 1.456 0.146 1.93E-001 1.9E-002
1601 1.505 0.150 1.94E-001 1.9E-002
1639 1.586 0.159 2.08E-001 2.1E-002
1662 1.635 0.163 2.59E-001 2.6E-002
1682 1.641 0.164 3.21E-001 3.2E-002
1705 1.608 0.161 3.78E-001 3.8E-002
1743 1.524 0.152 4.06E-001 4.1E-002
1766 1.485 0.148 3.86E-001 3.9E-002
1859 1.440 0.144 3.07E-001 3.1E-002
1921 1.445 0.145 2.66E-001 2.7E-002
2021 1.481 0.148 2.30E-001 2.3E-002
2102 1.502 0.150 2.43E-001 2.4E-002
2183 1.499 0.150 2.70E-001 2.7E-002
2225 1.479 0.148 2.81E-001 2.8E-002
2272 1.452 0.145 2.78E-001 2.8E-002
2326 1.430 0.143 2.52E-001 2.5E-002
2411 1.437 0.144 2.19E-001 2.2E-002
2476 1.446 0.145 2.06E-001 2.1E-002
2522 1.460 0.146 2.05E-001 2.1E-002
2561 1.465 0.147 2.18E-001 2.2E-002
2650 1.445 0.145 2.34E-001 2.3E-002
2750 1.418 0.142 2.35E-001 2.3E-002
2800 1.400 0.140 2.26E-001 2.3E-002
2912 1.380 0.138 1.95E-001 1.9E-002
3074 1.382 0.138 1.58E-001 1.6E-002
3120 1.387 0.139 1.52E-001 1.5E-002
3167 1.393 0.139 1.55E-001 1.5E-002
3221 1.391 0.139 1.74E-001 1.7E-002
3263 1.359 0.136 1.88E-001 1.9E-002
3321 1.324 0.132 1.52E-001 1.5E-002
3359 1.319 0.132 1.28E-001 1.3E-002
3417 1.329 0.133 9.64E-002 9.6E-003
3437 1.336 0.134 9.28E-002 9.3E-003
3456 1.342 0.134 9.48E-002 9.5E-003
3479 1.341 0.134 1.11E-001 1.1E-002
3494 1.317 0.132 1.14E-001 1.1E-002
3529 1.299 0.130 6.99E-002 7.0E-003
3541 1.302 0.130 5.73E-002 5.7E-003
3564 1.312 0.131 3.70E-002 3.7E-003
3583 1.324 0.132 2.59E-002 2.6E-003
3602 1.335 0.134 1.88E-002 1.9E-003
3629 1.349 0.135 1.36E-002 1.4E-003
3660 1.362 0.136 1.05E-002 1.0E-003
3726 1.381 0.138 8.43E-003 8.4E-004
3753 1.387 0.139 8.15E-003 8.2E-004
3784 1.393 0.139 7.16E-003 7.2E-004
3930 1.415 0.141 6.59E-003 6.6E-004
3980 1.420 0.142 6.45E-003 6.5E-004
4091 1.430 0.143 0.00E+000 0.0E+000
4219 1.440 0.144 0.00E+000 0.0E+000
4381 1.450 0.145 0.00E+000 0.0E+000
4597 1.460 0.146 0.00E+000 0.0E+000
4883 1.470 0.147 0.00E+000 0.0E+000
5276 1.480 0.148 0.00E+000 0.0E+000
5828 1.490 0.149 0.00E+000 0.0E+000
6981 1.500 0.150 0.00E+000 0.0E+000