#DISTRIBUTEDBY=Aerosol Refractive Index Archive (http://eodg.atm.ox.ac.uk/ARIA/)
#DESCRIPTION=Refractive indices of supercooled water
#SUBSTANCE=Supercooled water
#TEMPERATURE=258K 
#DOI=10.1021/jp051942z
#REFERENCE=Wagner,R., S. Benz, O. Muhler, H. Saathoff, M. Schnaiter, and U. Schurath, Mid-Infrared Extinction Spectra and Optical 
## Constants of Supercooled Water Droplets, J. Phys. Chem., volume 109, pgs. 7099-7112, 2005.
#COMMENT=Data from HITRAN
#FORMAT=WAVL N K 
2.2207	1.28864	3.60E-04
2.2245	1.28833	3.80E-04
2.2284	1.28802	4.10E-04
2.2322	1.28772	4.40E-04
2.236	1.28742	4.70E-04
2.2399	1.28712	5.00E-04
2.2438	1.28682	5.20E-04
2.2477	1.28652	5.30E-04
2.2516	1.28621	5.40E-04
2.2555	1.2859	5.50E-04
2.2594	1.28558	5.50E-04
2.2634	1.28526	5.50E-04
2.2673	1.28492	5.60E-04
2.2713	1.28459	5.60E-04
2.2753	1.28424	5.60E-04
2.2793	1.2839	5.60E-04
2.2833	1.28354	5.60E-04
2.2873	1.28318	5.60E-04
2.2914	1.28281	5.60E-04
2.2954	1.28244	5.60E-04
2.2995	1.28206	5.50E-04
2.3036	1.28167	5.50E-04
2.3077	1.28127	5.50E-04
2.3118	1.28086	5.50E-04
2.3159	1.28045	5.50E-04
2.3201	1.28003	5.50E-04
2.3242	1.2796	5.50E-04
2.3284	1.27917	5.60E-04
2.3326	1.27872	5.60E-04
2.3368	1.27828	5.70E-04
2.341	1.27782	5.80E-04
2.3453	1.27735	5.90E-04
2.3495	1.27688	6.00E-04
2.3538	1.27641	6.10E-04
2.3581	1.27591	6.20E-04
2.3624	1.27541	6.30E-04
2.3667	1.2749	6.40E-04
2.371	1.27438	6.60E-04
2.3753	1.27384	6.80E-04
2.3797	1.27331	7.10E-04
2.3841	1.27277	7.40E-04
2.3885	1.27221	7.60E-04
2.3929	1.27165	8.00E-04
2.3973	1.27108	8.30E-04
2.4017	1.2705	8.70E-04
2.4062	1.26992	9.10E-04
2.4107	1.26933	9.40E-04
2.4152	1.26873	9.80E-04
2.4197	1.26812	1.01E-03
2.4242	1.26749	1.04E-03
2.4288	1.26686	1.08E-03
2.4333	1.26622	1.11E-03
2.4379	1.26556	1.14E-03
2.4425	1.26489	1.17E-03
2.4471	1.26421	1.20E-03
2.4517	1.26352	1.22E-03
2.4564	1.26281	1.24E-03
2.461	1.26209	1.25E-03
2.4657	1.26134	1.26E-03
2.4704	1.26058	1.26E-03
2.4751	1.2598	1.27E-03
2.4799	1.25899	1.26E-03
2.4846	1.25816	1.26E-03
2.4894	1.25732	1.25E-03
2.4942	1.25643	1.23E-03
2.499	1.25552	1.22E-03
2.5038	1.25458	1.20E-03
2.5087	1.25361	1.19E-03
2.5135	1.25261	1.17E-03
2.5184	1.25157	1.16E-03
2.5233	1.25051	1.15E-03
2.5282	1.24941	1.13E-03
2.5332	1.24827	1.12E-03
2.5381	1.2471	1.10E-03
2.5431	1.24587	1.09E-03
2.5481	1.2446	1.08E-03
2.5531	1.24328	1.09E-03
2.5582	1.24192	1.09E-03
2.5632	1.2405	1.11E-03
2.5683	1.23904	1.13E-03
2.5734	1.2375	1.17E-03
2.5785	1.23592	1.23E-03
2.5836	1.23427	1.31E-03
2.5888	1.23258	1.42E-03
2.594	1.23082	1.56E-03
2.5992	1.22905	1.72E-03
2.6044	1.22721	1.89E-03
2.6097	1.22536	2.07E-03
2.6149	1.22345	2.22E-03
2.6202	1.22148	2.34E-03
2.6255	1.21942	2.42E-03
2.6308	1.21724	2.45E-03
2.6362	1.2149	2.45E-03
2.6416	1.21239	2.43E-03
2.647	1.20967	2.41E-03
2.6524	1.20671	2.43E-03
2.6578	1.20352	2.51E-03
2.6633	1.20009	2.68E-03
2.6688	1.1964	2.96E-03
2.6743	1.19242	3.39E-03
2.6798	1.18817	4.01E-03
2.6853	1.18359	4.86E-03
2.6909	1.17873	6.01E-03
2.6965	1.17357	7.53E-03
2.7021	1.16814	9.49E-03
2.7078	1.16255	1.20E-02
2.7134	1.15681	1.50E-02
2.7191	1.15111	1.87E-02
2.7248	1.14549	2.29E-02
2.7306	1.14009	2.76E-02
2.7364	1.13498	3.27E-02
2.7421	1.12999	3.81E-02
2.748	1.12525	4.38E-02
2.7538	1.12053	4.98E-02
2.7596	1.11597	5.60E-02
2.7655	1.11131	6.26E-02
2.7715	1.10683	6.97E-02
2.7774	1.10224	7.72E-02
2.7833	1.09799	8.53E-02
2.7893	1.09369	9.40E-02
2.7953	1.09002	1.03E-01
2.8014	1.086	1.13E-01
2.8075	1.08319	1.24E-01
2.8136	1.08015	1.35E-01
2.8197	1.07811	1.48E-01
2.8258	1.07707	1.60E-01
2.832	1.07706	1.74E-01
2.8382	1.07719	1.88E-01
2.8444	1.07978	2.02E-01
2.8507	1.08253	2.17E-01
2.857	1.08736	2.31E-01
2.8633	1.09336	2.46E-01
2.8696	1.10042	2.60E-01
2.876	1.10962	2.74E-01
2.8824	1.11867	2.87E-01
2.8888	1.12972	2.99E-01
2.8952	1.14146	3.11E-01
2.9017	1.15425	3.21E-01
2.9082	1.16786	3.31E-01
2.9148	1.18216	3.39E-01
2.9213	1.19683	3.46E-01
2.9279	1.21182	3.52E-01
2.9346	1.2271	3.57E-01
2.9412	1.24242	3.62E-01
2.9479	1.25914	3.64E-01
2.9546	1.27488	3.66E-01
2.9614	1.29089	3.66E-01
2.9682	1.30711	3.66E-01
2.975	1.32193	3.63E-01
2.9818	1.33742	3.60E-01
2.9887	1.35224	3.55E-01
2.9956	1.36536	3.50E-01
3.0025	1.37783	3.43E-01
3.0095	1.38922	3.37E-01
3.0165	1.4	3.29E-01
3.0236	1.40887	3.22E-01
3.0306	1.41861	3.15E-01
3.0377	1.42579	3.07E-01
3.0448	1.43395	3.00E-01
3.052	1.44061	2.93E-01
3.0592	1.44734	2.85E-01
3.0665	1.45297	2.78E-01
3.0737	1.45866	2.71E-01
3.081	1.46341	2.64E-01
3.0884	1.46826	2.58E-01
3.0957	1.47351	2.52E-01
3.1032	1.47893	2.46E-01
3.1106	1.48438	2.40E-01
3.1181	1.49031	2.33E-01
3.1256	1.4955	2.25E-01
3.1332	1.50074	2.18E-01
3.1407	1.50533	2.09E-01
3.1484	1.50936	2.01E-01
3.156	1.51262	1.92E-01
3.1638	1.51555	1.83E-01
3.1715	1.51764	1.74E-01
3.1793	1.51896	1.65E-01
3.1871	1.52021	1.56E-01
3.1949	1.52044	1.48E-01
3.2028	1.52083	1.40E-01
3.2108	1.52078	1.32E-01
3.2187	1.52055	1.23E-01
3.2267	1.51951	1.15E-01
3.2348	1.5183	1.07E-01
3.2429	1.51642	9.97E-02
3.251	1.5142	9.24E-02
3.2592	1.51133	8.55E-02
3.2674	1.50851	7.90E-02
3.2757	1.5052	7.28E-02
3.284	1.50179	6.71E-02
3.2923	1.49824	6.19E-02
3.3007	1.49462	5.70E-02
3.3091	1.49097	5.24E-02
3.3176	1.48722	4.83E-02
3.3261	1.48354	4.44E-02
3.3347	1.47982	4.09E-02
3.3432	1.4762	3.76E-02
3.3519	1.47256	3.46E-02
3.3606	1.46911	3.19E-02
3.3693	1.4656	2.93E-02
3.3781	1.4622	2.70E-02
3.3869	1.45894	2.48E-02
3.3958	1.45566	2.28E-02
3.4047	1.45254	2.10E-02
3.4137	1.4495	1.93E-02
3.4227	1.44654	1.77E-02
3.4318	1.44363	1.63E-02
3.4409	1.44079	1.49E-02
3.45	1.43801	1.37E-02
3.4592	1.43528	1.25E-02
3.4685	1.43264	1.15E-02
3.4778	1.43006	1.05E-02
3.4871	1.42757	9.65E-03
3.4966	1.42513	8.86E-03
3.506	1.42276	8.14E-03
3.5155	1.42049	7.48E-03
3.5251	1.41824	6.88E-03
3.5347	1.41607	6.34E-03
3.5443	1.41393	5.85E-03
3.5541	1.41188	5.42E-03
3.5638	1.40987	5.04E-03
3.5737	1.40794	4.71E-03
3.5835	1.40605	4.42E-03
3.5935	1.40424	4.16E-03
3.6035	1.40247	3.93E-03
3.6135	1.40077	3.72E-03
3.6236	1.3991	3.53E-03
3.6338	1.39749	3.38E-03
3.644	1.39592	3.24E-03
3.6543	1.39439	3.12E-03
3.6646	1.39291	3.02E-03
3.675	1.39147	2.93E-03
3.6854	1.39005	2.86E-03
3.6959	1.3887	2.79E-03
3.7065	1.38735	2.73E-03
3.7171	1.38605	2.68E-03
3.7278	1.38476	2.64E-03
3.7386	1.38351	2.61E-03
3.7494	1.38227	2.58E-03
3.7602	1.38106	2.57E-03
3.7712	1.37986	2.57E-03
3.7822	1.3787	2.57E-03
3.7933	1.37752	2.59E-03
3.8044	1.3764	2.63E-03
3.8156	1.37526	2.68E-03
3.8268	1.37417	2.75E-03
3.8382	1.37309	2.83E-03
3.8496	1.37204	2.92E-03
3.861	1.371	3.02E-03
3.8726	1.36999	3.14E-03
3.8842	1.36899	3.26E-03
3.8958	1.36802	3.40E-03
3.9076	1.36705	3.55E-03
3.9194	1.36613	3.71E-03
3.9313	1.36521	3.88E-03
3.9433	1.36432	4.05E-03
3.9553	1.36344	4.23E-03
3.9674	1.3626	4.42E-03
3.9796	1.36176	4.61E-03
3.9918	1.36095	4.80E-03
4.0042	1.36014	5.00E-03
4.0166	1.35938	5.21E-03
4.029	1.35861	5.41E-03
4.0416	1.35788	5.62E-03
4.0543	1.35715	5.82E-03
4.067	1.35644	6.02E-03
4.0798	1.35574	6.23E-03
4.0926	1.35507	6.42E-03
4.1056	1.35438	6.62E-03
4.1186	1.35374	6.80E-03
4.1318	1.35306	6.98E-03
4.145	1.35241	7.15E-03
4.1583	1.35173	7.32E-03
4.1717	1.35104	7.51E-03
4.1851	1.35037	7.71E-03
4.1987	1.34969	7.92E-03
4.2123	1.34901	8.14E-03
4.2261	1.34835	8.38E-03
4.2399	1.34764	8.62E-03
4.2538	1.34697	8.90E-03
4.2678	1.34627	9.21E-03
4.2819	1.3456	9.57E-03
4.2961	1.34495	9.96E-03
4.3104	1.34435	1.04E-02
4.3247	1.3438	1.09E-02
4.3392	1.34332	1.13E-02
4.3538	1.34289	1.18E-02
4.3685	1.34248	1.22E-02
4.3833	1.34208	1.26E-02
4.3981	1.3417	1.29E-02
4.4131	1.3413	1.33E-02
4.4282	1.34092	1.37E-02
4.4433	1.34052	1.41E-02
4.4586	1.34019	1.46E-02
4.474	1.33988	1.51E-02
4.4895	1.33965	1.56E-02
4.5051	1.33948	1.61E-02
4.5208	1.33939	1.65E-02
4.5366	1.33936	1.70E-02
4.5526	1.33942	1.74E-02
4.5686	1.3395	1.77E-02
4.5848	1.33968	1.80E-02
4.601	1.33984	1.82E-02
4.6174	1.34007	1.83E-02
4.6339	1.34032	1.84E-02
4.6506	1.34054	1.83E-02
4.6673	1.34076	1.81E-02
4.6842	1.34096	1.79E-02
4.7012	1.34108	1.75E-02
4.7183	1.34117	1.71E-02
4.7355	1.34114	1.66E-02
4.7529	1.34106	1.60E-02
4.7704	1.34087	1.55E-02
4.788	1.34063	1.49E-02
4.8057	1.34028	1.43E-02
4.8236	1.33988	1.37E-02
4.8416	1.3394	1.31E-02
4.8598	1.33884	1.26E-02
4.8781	1.33823	1.20E-02
4.8965	1.33754	1.15E-02
4.9151	1.33681	1.10E-02
4.9338	1.33604	1.05E-02
4.9526	1.3352	1.01E-02
4.9716	1.33436	9.69E-03
4.9907	1.33346	9.32E-03
5.01	1.33254	8.97E-03
5.0295	1.33156	8.65E-03
5.0491	1.33057	8.36E-03
5.0688	1.32952	8.10E-03
5.0887	1.32846	7.88E-03
5.1087	1.32733	7.70E-03
5.129	1.32622	7.56E-03
5.1493	1.32505	7.46E-03
5.1699	1.32389	7.40E-03
5.1906	1.32269	7.37E-03
5.2114	1.3215	7.38E-03
5.2325	1.32028	7.41E-03
5.2537	1.31907	7.47E-03
5.2751	1.31783	7.53E-03
5.2966	1.31658	7.60E-03
5.3183	1.31528	7.67E-03
5.3403	1.31394	7.74E-03
5.3623	1.31253	7.82E-03
5.3846	1.31107	7.91E-03
5.4071	1.30951	8.02E-03
5.4297	1.30787	8.16E-03
5.4525	1.30614	8.34E-03
5.4756	1.3043	8.55E-03
5.4988	1.30234	8.81E-03
5.5222	1.30023	9.12E-03
5.5459	1.29794	9.51E-03
5.5697	1.29544	1.00E-02
5.5937	1.29269	1.07E-02
5.618	1.28967	1.15E-02
5.6424	1.28635	1.28E-02
5.6671	1.28275	1.44E-02
5.692	1.27892	1.66E-02
5.7171	1.27497	1.96E-02
5.7424	1.27102	2.33E-02
5.7679	1.26723	2.79E-02
5.7937	1.26374	3.35E-02
5.8197	1.26084	4.01E-02
5.846	1.25894	4.78E-02
5.8725	1.25835	5.63E-02
5.8992	1.25947	6.53E-02
5.9262	1.26242	7.45E-02
5.9534	1.26742	8.32E-02
5.9808	1.27428	9.10E-02
6.0086	1.28293	9.72E-02
6.0365	1.29277	1.01E-01
6.0648	1.3034	1.03E-01
6.0933	1.31373	1.02E-01
6.122	1.32313	9.94E-02
6.1511	1.33143	9.47E-02
6.1804	1.33793	8.86E-02
6.21	1.34267	8.17E-02
6.2399	1.3453	7.45E-02
6.2701	1.34632	6.76E-02
6.3006	1.34587	6.15E-02
6.3313	1.34448	5.62E-02
6.3624	1.34236	5.19E-02
6.3938	1.33995	4.84E-02
6.4255	1.33724	4.57E-02
6.4575	1.33446	4.37E-02
6.4898	1.3317	4.24E-02
6.5225	1.32914	4.18E-02
6.5555	1.32694	4.18E-02
6.5888	1.32525	4.20E-02
6.6225	1.32398	4.24E-02
6.6565	1.32315	4.26E-02
6.6908	1.32247	4.28E-02
6.7255	1.32197	4.27E-02
6.7606	1.32142	4.25E-02
6.796	1.32091	4.22E-02
6.8318	1.32026	4.18E-02
6.8681	1.31954	4.14E-02
6.9046	1.31873	4.10E-02
6.9416	1.31794	4.07E-02
6.979	1.31706	4.04E-02
7.0167	1.31618	4.01E-02
7.0549	1.31522	3.99E-02
7.0935	1.31432	3.98E-02
7.1326	1.31338	3.97E-02
7.172	1.31252	3.96E-02
7.2119	1.31157	3.95E-02
7.2523	1.31067	3.95E-02
7.2931	1.30976	3.96E-02
7.3343	1.30901	3.97E-02
7.3761	1.3083	3.97E-02
7.4183	1.30765	3.95E-02
7.461	1.30689	3.93E-02
7.5042	1.30603	3.90E-02
7.5479	1.30499	3.87E-02
7.5921	1.30394	3.84E-02
7.6368	1.30277	3.83E-02
7.682	1.30161	3.81E-02
7.7278	1.3004	3.80E-02
7.7742	1.2992	3.80E-02
7.8211	1.29797	3.79E-02
7.8685	1.2968	3.79E-02
7.9166	1.29558	3.79E-02
7.9653	1.29442	3.78E-02
8.0145	1.29317	3.76E-02
8.0644	1.29186	3.74E-02
8.1148	1.29039	3.72E-02
8.1659	1.28891	3.71E-02
8.2177	1.28731	3.69E-02
8.2701	1.28568	3.67E-02
8.3232	1.28393	3.66E-02
8.377	1.28216	3.64E-02
8.4315	1.28021	3.62E-02
8.4867	1.27823	3.61E-02
8.5426	1.27611	3.60E-02
8.5993	1.27394	3.60E-02
8.6567	1.27163	3.60E-02
8.7149	1.26924	3.60E-02
8.7739	1.26674	3.61E-02
8.8337	1.26419	3.62E-02
8.8943	1.26148	3.63E-02
8.9557	1.2587	3.64E-02
9.018	1.25571	3.66E-02
9.0812	1.25261	3.69E-02
