#FORMAT = WAVN n dn k dk
#DESCRIPTION = Refractive indices of &#946 nitric acid trihydrate at 196 K from 482 to 6364 cm<sup>-1</sup>.
#SUBSTANCE= BETA NAT
#SAMPLEFORM= Thin Film
#TEMPERATURE= 196 K
#CONCENTRATION=   
#DOI=10.1029/94jd02388
#REFERENCE= O. B. Toon, M. A. Tolbert, B. G. Koehler, A. M. Middlebrook, and
## J. Jordan, Infrared optical constants of H2O-ice, amorphous acid
## solutions, and nitric acid hydrates, J. Geophys. Res., 99, 25631 - 25654,
## 1994.
#CONTACT= 
#COMMENT= Derived from 3 spectroscopic measurements of thin crystaline films.
 482 1.950 0.195 2.22E-001 2.2E-002
 494 1.832 0.183 2.54E-001 2.5E-002
 505 1.792 0.179 1.99E-001 2.0E-002
 517 1.823 0.182 1.57E-001 1.6E-002
 525 1.854 0.185 1.50E-001 1.5E-002
 528 1.869 0.187 1.53E-001 1.5E-002
 555 1.936 0.194 2.12E-001 2.1E-002
 571 1.945 0.194 2.73E-001 2.7E-002
 582 1.930 0.193 3.19E-001 3.2E-002
 602 1.850 0.185 3.71E-001 3.7E-002
 617 1.796 0.180 3.06E-001 3.1E-002
 629 1.825 0.183 2.67E-001 2.7E-002
 636 1.854 0.185 2.63E-001 2.6E-002
 648 1.898 0.190 2.82E-001 2.8E-002
 671 1.950 0.195 4.03E-001 4.0E-002
 687 1.906 0.191 5.25E-001 5.2E-002
 702 1.772 0.177 6.16E-001 6.2E-002
 717 1.652 0.165 5.52E-001 5.5E-002
 721 1.646 0.165 5.59E-001 5.6E-002
 729 1.572 0.157 6.00E-001 6.0E-002
 733 1.508 0.151 5.81E-001 5.8E-002
 741 1.443 0.144 4.56E-001 4.6E-002
 748 1.465 0.147 3.74E-001 3.7E-002
 779 1.529 0.153 2.41E-001 2.4E-002
 806 1.618 0.162 2.18E-001 2.2E-002
 814 1.648 0.165 2.65E-001 2.6E-002
 822 1.601 0.160 3.27E-001 3.3E-002
 829 1.537 0.154 2.93E-001 2.9E-002
 837 1.529 0.153 2.42E-001 2.4E-002
 845 1.538 0.154 2.14E-001 2.1E-002
 872 1.582 0.158 1.66E-001 1.7E-002
 891 1.601 0.160 1.65E-001 1.6E-002
 906 1.603 0.160 1.50E-001 1.5E-002
 941 1.646 0.165 1.20E-001 1.2E-002
 976 1.687 0.169 1.19E-001 1.2E-002
1034 1.747 0.175 1.30E-001 1.3E-002
1049 1.758 0.176 1.44E-001 1.4E-002
1057 1.761 0.176 1.41E-001 1.4E-002
1065 1.772 0.177 1.41E-001 1.4E-002
1111 1.830 0.183 1.78E-001 1.8E-002
1169 1.891 0.189 2.73E-001 2.7E-002
1184 1.897 0.190 3.18E-001 3.2E-002
1196 1.888 0.189 3.51E-001 3.5E-002
1219 1.868 0.187 3.87E-001 3.9E-002
1277 1.874 0.187 5.29E-001 5.3E-002
1300 1.851 0.185 6.55E-001 6.5E-002
1323 1.658 0.166 7.98E-001 8.0E-002
1354 1.476 0.148 6.92E-001 6.9E-002
1362 1.458 0.146 7.00E-001 7.0E-002
1373 1.390 0.139 7.10E-001 7.1E-002
1400 1.182 0.118 6.25E-001 6.3E-002
1415 1.095 0.110 4.24E-001 4.2E-002
1423 1.122 0.112 3.28E-001 3.3E-002
1435 1.196 0.120 2.42E-001 2.4E-002
1454 1.300 0.130 1.90E-001 1.9E-002
1469 1.360 0.136 1.83E-001 1.8E-002
1504 1.433 0.143 1.96E-001 2.0E-002
1539 1.462 0.146 2.12E-001 2.1E-002
1589 1.486 0.149 2.15E-001 2.2E-002
1608 1.495 0.149 2.25E-001 2.2E-002
1631 1.489 0.149 2.35E-001 2.3E-002
1662 1.485 0.148 2.32E-001 2.3E-002
1682 1.482 0.148 2.21E-001 2.2E-002
1701 1.499 0.150 2.10E-001 2.1E-002
1712 1.511 0.151 2.13E-001 2.1E-002
1743 1.529 0.153 2.41E-001 2.4E-002
1786 1.513 0.151 2.79E-001 2.8E-002
1828 1.475 0.148 2.96E-001 3.0E-002
1878 1.428 0.143 2.80E-001 2.8E-002
1909 1.408 0.141 2.57E-001 2.6E-002
1940 1.404 0.140 2.31E-001 2.3E-002
1979 1.413 0.141 2.10E-001 2.1E-002
2087 1.424 0.142 1.88E-001 1.9E-002
2148 1.424 0.142 1.84E-001 1.8E-002
2349 1.426 0.143 1.54E-001 1.5E-002
2480 1.439 0.144 1.36E-001 1.4E-002
2519 1.448 0.145 1.37E-001 1.4E-002
2600 1.452 0.145 1.47E-001 1.5E-002
2700 1.450 0.145 1.59E-001 1.6E-002
2750 1.440 0.144 1.66E-001 1.7E-002
2796 1.429 0.143 1.62E-001 1.6E-002
2920 1.416 0.142 1.41E-001 1.4E-002
2989 1.424 0.142 1.29E-001 1.3E-002
3047 1.438 0.144 1.26E-001 1.3E-002
3089 1.451 0.145 1.29E-001 1.3E-002
3128 1.464 0.146 1.44E-001 1.4E-002
3170 1.469 0.147 1.74E-001 1.7E-002
3201 1.455 0.146 2.02E-001 2.0E-002
3228 1.429 0.143 2.12E-001 2.1E-002
3267 1.411 0.141 2.08E-001 2.1E-002
3313 1.401 0.140 2.21E-001 2.2E-002
3363 1.346 0.135 2.62E-001 2.6E-002
3379 1.311 0.131 2.59E-001 2.6E-002
3448 1.224 0.122 1.61E-001 1.6E-002
3494 1.234 0.123 8.49E-002 8.5E-003
3533 1.260 0.126 4.74E-002 4.7E-003
3568 1.285 0.128 2.80E-002 2.8E-003
3595 1.303 0.130 2.06E-002 2.1E-003
3618 1.316 0.132 1.57E-002 1.6E-003
3626 1.319 0.132 1.52E-002 1.5E-003
3629 1.321 0.132 1.35E-002 1.4E-003
3656 1.333 0.133 1.25E-002 1.2E-003
3737 1.357 0.136 1.01E-002 1.0E-003
3853 1.379 0.138 9.04E-003 9.0E-004
3996 1.396 0.140 9.44E-003 9.4E-004
4108 1.405 0.140 0.00E+000 0.0E+000
4420 1.424 0.142 0.00E+000 0.0E+000
4891 1.440 0.144 0.00E+000 0.0E+000
5805 1.454 0.145 0.00E+000 0.0E+000
6364 1.460 0.146 0.00E+000 0.0E+000