#DISTRIBUTEDBY=Aerosol Refractive Index Archive (http://eodg.atm.ox.ac.uk/ARIA/)
#DESCRIPTION=Refractive indices of supercooled water
#SUBSTANCE=Supercooled water
#TEMPERATURE=238K 
#DOI=10.1021/jp051942z
#REFERENCE=Wagner,R., S. Benz, O. Muhler, H. Saathoff, M. Schnaiter, and U. Schurath, Mid-Infrared Extinction Spectra and Optical 
## Constants of Supercooled Water Droplets, J. Phys. Chem., volume 109, pgs. 7099-7112, 2005.
#COMMENT=Data from HITRAN
#FORMAT=WAVL N K 
2.2207	1.2821	3.00E-04
2.2245	1.28177	3.00E-04
2.2284	1.28146	3.00E-04
2.2322	1.28113	3.00E-04
2.236	1.2808	3.00E-04
2.2399	1.28046	3.00E-04
2.2438	1.28012	3.10E-04
2.2477	1.27977	3.30E-04
2.2516	1.27943	3.50E-04
2.2555	1.27909	3.70E-04
2.2594	1.27874	3.90E-04
2.2634	1.2784	4.10E-04
2.2673	1.27806	4.30E-04
2.2713	1.27771	4.40E-04
2.2753	1.27736	4.50E-04
2.2793	1.277	4.60E-04
2.2833	1.27664	4.60E-04
2.2873	1.27626	4.60E-04
2.2914	1.27587	4.60E-04
2.2954	1.27547	4.60E-04
2.2995	1.27506	4.70E-04
2.3036	1.27465	4.80E-04
2.3077	1.27423	5.00E-04
2.3118	1.2738	5.20E-04
2.3159	1.27337	5.50E-04
2.3201	1.27294	5.80E-04
2.3242	1.27251	6.20E-04
2.3284	1.27207	6.50E-04
2.3326	1.27163	6.90E-04
2.3368	1.27119	7.30E-04
2.341	1.27075	7.60E-04
2.3453	1.27031	7.90E-04
2.3495	1.26985	8.10E-04
2.3538	1.26939	8.30E-04
2.3581	1.26892	8.50E-04
2.3624	1.26844	8.60E-04
2.3667	1.26795	8.80E-04
2.371	1.26746	8.90E-04
2.3753	1.26694	9.00E-04
2.3797	1.26642	9.10E-04
2.3841	1.26589	9.20E-04
2.3885	1.26534	9.30E-04
2.3929	1.26479	9.40E-04
2.3973	1.26422	9.50E-04
2.4017	1.26364	9.70E-04
2.4062	1.26304	9.80E-04
2.4107	1.26244	1.00E-03
2.4152	1.26181	1.02E-03
2.4197	1.26119	1.04E-03
2.4242	1.26054	1.07E-03
2.4288	1.25989	1.10E-03
2.4333	1.25921	1.13E-03
2.4379	1.25853	1.17E-03
2.4425	1.25784	1.21E-03
2.4471	1.25715	1.26E-03
2.4517	1.25645	1.30E-03
2.4564	1.25574	1.34E-03
2.461	1.25501	1.37E-03
2.4657	1.25426	1.40E-03
2.4704	1.25351	1.42E-03
2.4751	1.25273	1.44E-03
2.4799	1.25192	1.46E-03
2.4846	1.25111	1.48E-03
2.4894	1.25028	1.50E-03
2.4942	1.24942	1.51E-03
2.499	1.24855	1.52E-03
2.5038	1.24765	1.52E-03
2.5087	1.24674	1.51E-03
2.5135	1.24579	1.49E-03
2.5184	1.24481	1.46E-03
2.5233	1.24379	1.43E-03
2.5282	1.24274	1.39E-03
2.5332	1.24165	1.35E-03
2.5381	1.24052	1.30E-03
2.5431	1.23934	1.25E-03
2.5481	1.23812	1.19E-03
2.5531	1.23683	1.13E-03
2.5582	1.2355	1.08E-03
2.5632	1.23409	1.03E-03
2.5683	1.23263	1.01E-03
2.5734	1.23111	1.00E-03
2.5785	1.22953	1.02E-03
2.5836	1.2279	1.05E-03
2.5888	1.22619	1.11E-03
2.594	1.22443	1.20E-03
2.5992	1.2226	1.32E-03
2.6044	1.22073	1.50E-03
2.6097	1.21881	1.71E-03
2.6149	1.21687	1.97E-03
2.6202	1.21493	2.22E-03
2.6255	1.21294	2.45E-03
2.6308	1.21091	2.64E-03
2.6362	1.20878	2.76E-03
2.6416	1.20652	2.84E-03
2.647	1.2041	2.89E-03
2.6524	1.20149	2.94E-03
2.6578	1.19866	3.01E-03
2.6633	1.19563	3.15E-03
2.6688	1.1924	3.36E-03
2.6743	1.18892	3.68E-03
2.6798	1.18526	4.10E-03
2.6853	1.1813	4.66E-03
2.6909	1.17711	5.39E-03
2.6965	1.1726	6.35E-03
2.7021	1.16784	7.63E-03
2.7078	1.16285	9.28E-03
2.7134	1.15767	1.14E-02
2.7191	1.15242	1.39E-02
2.7248	1.14712	1.69E-02
2.7306	1.14188	2.02E-02
2.7364	1.13677	2.40E-02
2.7421	1.1317	2.80E-02
2.748	1.12675	3.23E-02
2.7538	1.12172	3.68E-02
2.7596	1.11674	4.16E-02
2.7655	1.11156	4.67E-02
2.7715	1.10639	5.22E-02
2.7774	1.101	5.82E-02
2.7833	1.09576	6.47E-02
2.7893	1.09035	7.18E-02
2.7953	1.08531	7.95E-02
2.8014	1.07993	8.79E-02
2.8075	1.07539	9.70E-02
2.8136	1.07061	1.07E-01
2.8197	1.06647	1.17E-01
2.8258	1.06299	1.29E-01
2.832	1.06019	1.41E-01
2.8382	1.05737	1.53E-01
2.8444	1.05648	1.67E-01
2.8507	1.05562	1.80E-01
2.857	1.05641	1.95E-01
2.8633	1.05813	2.09E-01
2.8696	1.06078	2.24E-01
2.876	1.06541	2.39E-01
2.8824	1.07018	2.54E-01
2.8888	1.07698	2.68E-01
2.8952	1.08463	2.82E-01
2.9017	1.09334	2.96E-01
2.9082	1.10298	3.09E-01
2.9148	1.11351	3.21E-01
2.9213	1.12485	3.33E-01
2.9279	1.13702	3.44E-01
2.9346	1.14997	3.54E-01
2.9412	1.16335	3.64E-01
2.9479	1.17857	3.72E-01
2.9546	1.19324	3.80E-01
2.9614	1.20866	3.86E-01
2.9682	1.22477	3.92E-01
2.975	1.23989	3.96E-01
2.9818	1.25639	3.99E-01
2.9887	1.27299	4.01E-01
2.9956	1.28866	4.03E-01
3.0025	1.30465	4.03E-01
3.0095	1.32049	4.03E-01
3.0165	1.33667	4.01E-01
3.0236	1.35142	3.99E-01
3.0306	1.368	3.96E-01
3.0377	1.38195	3.92E-01
3.0448	1.39757	3.88E-01
3.052	1.41163	3.82E-01
3.0592	1.42602	3.76E-01
3.0665	1.43909	3.69E-01
3.0737	1.45237	3.61E-01
3.081	1.46444	3.53E-01
3.0884	1.47641	3.43E-01
3.0957	1.48809	3.34E-01
3.1032	1.49874	3.23E-01
3.1106	1.50813	3.12E-01
3.1181	1.51721	3.01E-01
3.1256	1.52483	2.90E-01
3.1332	1.5323	2.78E-01
3.1407	1.53876	2.66E-01
3.1484	1.54455	2.54E-01
3.156	1.54951	2.43E-01
3.1638	1.55438	2.31E-01
3.1715	1.55858	2.19E-01
3.1793	1.56211	2.06E-01
3.1871	1.56552	1.93E-01
3.1949	1.56722	1.80E-01
3.2028	1.56817	1.66E-01
3.2108	1.56752	1.53E-01
3.2187	1.56568	1.40E-01
3.2267	1.56235	1.28E-01
3.2348	1.55854	1.17E-01
3.2429	1.55398	1.06E-01
3.251	1.54903	9.69E-02
3.2592	1.54354	8.85E-02
3.2674	1.53831	8.10E-02
3.2757	1.53293	7.42E-02
3.284	1.52777	6.81E-02
3.2923	1.5227	6.24E-02
3.3007	1.5177	5.71E-02
3.3091	1.51275	5.22E-02
3.3176	1.50776	4.78E-02
3.3261	1.50294	4.38E-02
3.3347	1.49817	4.01E-02
3.3432	1.49362	3.68E-02
3.3519	1.48913	3.37E-02
3.3606	1.48489	3.08E-02
3.3693	1.48064	2.82E-02
3.3781	1.47657	2.59E-02
3.3869	1.47265	2.37E-02
3.3958	1.46879	2.17E-02
3.4047	1.46509	1.98E-02
3.4137	1.46151	1.81E-02
3.4227	1.45801	1.65E-02
3.4318	1.45461	1.51E-02
3.4409	1.45129	1.37E-02
3.45	1.44806	1.26E-02
3.4592	1.44494	1.15E-02
3.4685	1.44196	1.05E-02
3.4778	1.43904	9.62E-03
3.4871	1.43624	8.82E-03
3.4966	1.43353	8.08E-03
3.506	1.43089	7.41E-03
3.5155	1.42836	6.80E-03
3.5251	1.42588	6.24E-03
3.5347	1.42349	5.74E-03
3.5443	1.42115	5.28E-03
3.5541	1.41888	4.88E-03
3.5638	1.41668	4.54E-03
3.5737	1.41456	4.25E-03
3.5835	1.41252	4.00E-03
3.5935	1.41056	3.77E-03
3.6035	1.40865	3.57E-03
3.6135	1.40681	3.39E-03
3.6236	1.40502	3.22E-03
3.6338	1.4033	3.07E-03
3.644	1.40161	2.93E-03
3.6543	1.39996	2.81E-03
3.6646	1.39837	2.71E-03
3.675	1.39681	2.61E-03
3.6854	1.39529	2.53E-03
3.6959	1.39382	2.45E-03
3.7065	1.39236	2.39E-03
3.7171	1.39094	2.33E-03
3.7278	1.38954	2.28E-03
3.7386	1.38816	2.25E-03
3.7494	1.38681	2.24E-03
3.7602	1.38549	2.24E-03
3.7712	1.38419	2.26E-03
3.7822	1.38293	2.29E-03
3.7933	1.38168	2.33E-03
3.8044	1.38047	2.39E-03
3.8156	1.37927	2.45E-03
3.8268	1.37809	2.53E-03
3.8382	1.37693	2.62E-03
3.8496	1.37579	2.74E-03
3.861	1.37468	2.87E-03
3.8726	1.37359	3.02E-03
3.8842	1.37254	3.19E-03
3.8958	1.37152	3.35E-03
3.9076	1.37052	3.53E-03
3.9194	1.36955	3.70E-03
3.9313	1.36859	3.89E-03
3.9433	1.36767	4.07E-03
3.9553	1.36674	4.27E-03
3.9674	1.36586	4.48E-03
3.9796	1.36498	4.68E-03
3.9918	1.36413	4.90E-03
4.0042	1.36329	5.11E-03
4.0166	1.36248	5.34E-03
4.029	1.36168	5.57E-03
4.0416	1.36091	5.81E-03
4.0543	1.36017	6.04E-03
4.067	1.35944	6.26E-03
4.0798	1.35873	6.48E-03
4.0926	1.35803	6.69E-03
4.1056	1.35732	6.89E-03
4.1186	1.35662	7.10E-03
4.1318	1.35592	7.32E-03
4.145	1.35523	7.54E-03
4.1583	1.35455	7.78E-03
4.1717	1.35387	8.03E-03
4.1851	1.35322	8.29E-03
4.1987	1.3526	8.55E-03
4.2123	1.35198	8.79E-03
4.2261	1.35137	9.02E-03
4.2399	1.35072	9.24E-03
4.2538	1.35007	9.48E-03
4.2678	1.34938	9.75E-03
4.2819	1.34869	1.01E-02
4.2961	1.34803	1.05E-02
4.3104	1.34741	1.09E-02
4.3247	1.34684	1.14E-02
4.3392	1.34632	1.18E-02
4.3538	1.34585	1.23E-02
4.3685	1.3454	1.27E-02
4.3833	1.34497	1.32E-02
4.3981	1.34457	1.37E-02
4.4131	1.34419	1.42E-02
4.4282	1.34386	1.47E-02
4.4433	1.34357	1.52E-02
4.4586	1.34335	1.57E-02
4.474	1.34318	1.62E-02
4.4895	1.34307	1.68E-02
4.5051	1.34304	1.72E-02
4.5208	1.34307	1.77E-02
4.5366	1.34315	1.81E-02
4.5526	1.34332	1.85E-02
4.5686	1.34351	1.88E-02
4.5848	1.34382	1.90E-02
4.601	1.34411	1.92E-02
4.6174	1.34447	1.92E-02
4.6339	1.34484	1.91E-02
4.6506	1.34516	1.89E-02
4.6673	1.34546	1.85E-02
4.6842	1.34567	1.81E-02
4.7012	1.34578	1.75E-02
4.7183	1.3458	1.70E-02
4.7355	1.34571	1.63E-02
4.7529	1.34553	1.57E-02
4.7704	1.34526	1.51E-02
4.788	1.34491	1.44E-02
4.8057	1.34448	1.38E-02
4.8236	1.34398	1.32E-02
4.8416	1.34344	1.26E-02
4.8598	1.3428	1.20E-02
4.8781	1.34213	1.15E-02
4.8965	1.34139	1.10E-02
4.9151	1.3406	1.05E-02
4.9338	1.33976	1.01E-02
4.9526	1.33889	9.73E-03
4.9716	1.338	9.39E-03
4.9907	1.33707	9.09E-03
5.01	1.33614	8.83E-03
5.0295	1.33517	8.59E-03
5.0491	1.33418	8.39E-03
5.0688	1.33317	8.22E-03
5.0887	1.33215	8.08E-03
5.1087	1.33109	7.97E-03
5.129	1.33003	7.89E-03
5.1493	1.32894	7.84E-03
5.1699	1.32783	7.81E-03
5.1906	1.3267	7.82E-03
5.2114	1.32555	7.85E-03
5.2325	1.32437	7.91E-03
5.2537	1.32317	8.00E-03
5.2751	1.32193	8.12E-03
5.2966	1.32068	8.27E-03
5.3183	1.3194	8.45E-03
5.3403	1.31809	8.65E-03
5.3623	1.31674	8.87E-03
5.3846	1.31535	9.12E-03
5.4071	1.31388	9.38E-03
5.4297	1.31235	9.69E-03
5.4525	1.31075	1.00E-02
5.4756	1.30903	1.04E-02
5.4988	1.30722	1.09E-02
5.5222	1.30528	1.14E-02
5.5459	1.30322	1.21E-02
5.5697	1.30099	1.29E-02
5.5937	1.2986	1.38E-02
5.618	1.29603	1.50E-02
5.6424	1.29327	1.65E-02
5.6671	1.29035	1.84E-02
5.692	1.28736	2.08E-02
5.7171	1.28436	2.37E-02
5.7424	1.28149	2.72E-02
5.7679	1.27867	3.11E-02
5.7937	1.27578	3.58E-02
5.8197	1.27315	4.19E-02
5.846	1.27166	4.93E-02
5.8725	1.27204	5.76E-02
5.8992	1.27454	6.58E-02
5.9262	1.27872	7.33E-02
5.9534	1.28433	7.98E-02
5.9808	1.29105	8.51E-02
6.0086	1.29871	8.90E-02
6.0365	1.30692	9.12E-02
6.0648	1.3153	9.17E-02
6.0933	1.32333	9.03E-02
6.122	1.3306	8.73E-02
6.1511	1.33661	8.31E-02
6.1804	1.34126	7.81E-02
6.21	1.34467	7.26E-02
6.2399	1.34654	6.68E-02
6.2701	1.34674	6.11E-02
6.3006	1.34542	5.64E-02
6.3313	1.34351	5.33E-02
6.3624	1.34191	5.13E-02
6.3938	1.34077	4.96E-02
6.4255	1.33967	4.80E-02
6.4575	1.3384	4.66E-02
6.4898	1.33712	4.55E-02
6.5225	1.33592	4.48E-02
6.5555	1.33491	4.42E-02
6.5888	1.33405	4.38E-02
6.6225	1.33332	4.34E-02
6.6565	1.33273	4.31E-02
6.6908	1.33213	4.26E-02
6.7255	1.33155	4.22E-02
6.7606	1.3309	4.17E-02
6.796	1.33024	4.13E-02
6.8318	1.32959	4.10E-02
6.8681	1.32894	4.07E-02
6.9046	1.32832	4.05E-02
6.9416	1.32773	4.02E-02
6.979	1.32715	4.00E-02
7.0167	1.32658	3.97E-02
7.0549	1.32602	3.95E-02
7.0935	1.3255	3.92E-02
7.1326	1.32493	3.88E-02
7.172	1.32432	3.84E-02
7.2119	1.3236	3.80E-02
7.2523	1.32274	3.76E-02
7.2931	1.32176	3.73E-02
7.3343	1.32074	3.71E-02
7.3761	1.31974	3.71E-02
7.4183	1.31886	3.72E-02
7.461	1.31811	3.73E-02
7.5042	1.31744	3.73E-02
7.5479	1.31678	3.72E-02
7.5921	1.31609	3.70E-02
7.6368	1.31531	3.68E-02
7.682	1.31443	3.66E-02
7.7278	1.31349	3.64E-02
7.7742	1.31248	3.62E-02
7.8211	1.31144	3.60E-02
7.8685	1.31037	3.59E-02
7.9166	1.30927	3.58E-02
7.9653	1.30816	3.57E-02
8.0145	1.30703	3.56E-02
8.0644	1.30586	3.55E-02
8.1148	1.30465	3.54E-02
8.1659	1.30339	3.53E-02
8.2177	1.30208	3.52E-02
8.2701	1.30072	3.51E-02
8.3232	1.29926	3.50E-02
8.377	1.29775	3.48E-02
8.4315	1.29611	3.47E-02
8.4867	1.2944	3.46E-02
8.5426	1.29258	3.45E-02
8.5993	1.29067	3.45E-02
8.6567	1.2887	3.46E-02
8.7149	1.28664	3.47E-02
8.7739	1.28451	3.48E-02
8.8337	1.28226	3.49E-02
8.8943	1.27989	3.51E-02
8.9557	1.27739	3.53E-02
9.018	1.27474	3.56E-02
9.0812	1.27196	3.60E-02
