#DISTRIBUTEDBY=Aerosol Refractive Index Archive (http://eodg.atm.ox.ac.uk/ARIA/)
#DESCRIPTION=Refractive indices of supercooled water
#SUBSTANCE=Supercooled water
#TEMPERATURE=252K 
#DOI=10.1021/jp051942z
#REFERENCE=Wagner,R., S. Benz, O. Muhler, H. Saathoff, M. Schnaiter, and U. Schurath, Mid-Infrared Extinction Spectra and Optical 
## Constants of Supercooled Water Droplets, J. Phys. Chem., volume 109, pgs. 7099-7112, 2005.
#COMMENT=Data from HITRAN
#FORMAT=WAVL N K 
2.2207	1.28723	4.00E-04
2.2245	1.28694	4.30E-04
2.2284	1.28664	4.70E-04
2.2322	1.28636	5.00E-04
2.236	1.28607	5.20E-04
2.2399	1.28577	5.30E-04
2.2438	1.28547	5.40E-04
2.2477	1.28517	5.50E-04
2.2516	1.28485	5.60E-04
2.2555	1.28453	5.60E-04
2.2594	1.28421	5.80E-04
2.2634	1.28388	5.90E-04
2.2673	1.28356	6.00E-04
2.2713	1.28323	6.10E-04
2.2753	1.28291	6.10E-04
2.2793	1.28257	6.00E-04
2.2833	1.28223	5.80E-04
2.2873	1.28186	5.60E-04
2.2914	1.28149	5.50E-04
2.2954	1.2811	5.40E-04
2.2995	1.28071	5.50E-04
2.3036	1.28031	5.50E-04
2.3077	1.27992	5.50E-04
2.3118	1.27951	5.60E-04
2.3159	1.27911	5.60E-04
2.3201	1.2787	5.60E-04
2.3242	1.27828	5.50E-04
2.3284	1.27785	5.40E-04
2.3326	1.27741	5.30E-04
2.3368	1.27695	5.20E-04
2.341	1.27647	5.20E-04
2.3453	1.27598	5.30E-04
2.3495	1.2755	5.60E-04
2.3538	1.27503	5.90E-04
2.3581	1.27456	6.10E-04
2.3624	1.27408	6.10E-04
2.3667	1.27358	6.10E-04
2.371	1.27306	5.90E-04
2.3753	1.27252	5.90E-04
2.3797	1.27195	5.90E-04
2.3841	1.27138	6.20E-04
2.3885	1.27079	6.50E-04
2.3929	1.27021	7.10E-04
2.3973	1.26962	7.70E-04
2.4017	1.26905	8.30E-04
2.4062	1.26847	8.90E-04
2.4107	1.26789	9.40E-04
2.4152	1.2673	9.80E-04
2.4197	1.26671	1.02E-03
2.4242	1.26609	1.04E-03
2.4288	1.26546	1.07E-03
2.4333	1.26481	1.11E-03
2.4379	1.26416	1.14E-03
2.4425	1.26349	1.17E-03
2.4471	1.26281	1.20E-03
2.4517	1.2621	1.23E-03
2.4564	1.26141	1.26E-03
2.461	1.26067	1.28E-03
2.4657	1.25993	1.31E-03
2.4704	1.25917	1.33E-03
2.4751	1.25841	1.35E-03
2.4799	1.25761	1.36E-03
2.4846	1.2568	1.38E-03
2.4894	1.25597	1.38E-03
2.4942	1.25511	1.39E-03
2.499	1.25423	1.39E-03
2.5038	1.25332	1.39E-03
2.5087	1.2524	1.39E-03
2.5135	1.25144	1.38E-03
2.5184	1.25046	1.36E-03
2.5233	1.24945	1.34E-03
2.5282	1.24841	1.30E-03
2.5332	1.24731	1.25E-03
2.5381	1.24617	1.20E-03
2.5431	1.24497	1.15E-03
2.5481	1.24373	1.11E-03
2.5531	1.24244	1.07E-03
2.5582	1.24109	1.03E-03
2.5632	1.23968	1.01E-03
2.5683	1.23821	1.01E-03
2.5734	1.23669	1.03E-03
2.5785	1.2351	1.08E-03
2.5836	1.23348	1.15E-03
2.5888	1.2318	1.25E-03
2.594	1.23009	1.37E-03
2.5992	1.22833	1.50E-03
2.6044	1.22652	1.65E-03
2.6097	1.22467	1.80E-03
2.6149	1.22275	1.94E-03
2.6202	1.22077	2.08E-03
2.6255	1.21872	2.21E-03
2.6308	1.21658	2.31E-03
2.6362	1.21433	2.39E-03
2.6416	1.21194	2.44E-03
2.647	1.2094	2.48E-03
2.6524	1.20666	2.51E-03
2.6578	1.20372	2.55E-03
2.6633	1.20052	2.62E-03
2.6688	1.19706	2.77E-03
2.6743	1.19328	3.02E-03
2.6798	1.18922	3.45E-03
2.6853	1.1848	4.09E-03
2.6909	1.18009	5.04E-03
2.6965	1.17507	6.36E-03
2.7021	1.16982	8.12E-03
2.7078	1.16442	1.04E-02
2.7134	1.15891	1.32E-02
2.7191	1.15344	1.65E-02
2.7248	1.14804	2.03E-02
2.7306	1.14282	2.45E-02
2.7364	1.13787	2.91E-02
2.7421	1.13304	3.40E-02
2.748	1.12844	3.90E-02
2.7538	1.12376	4.42E-02
2.7596	1.11912	4.97E-02
2.7655	1.11429	5.55E-02
2.7715	1.10953	6.17E-02
2.7774	1.10458	6.84E-02
2.7833	1.09983	7.57E-02
2.7893	1.09492	8.36E-02
2.7953	1.09052	9.21E-02
2.8014	1.08576	1.01E-01
2.8075	1.0821	1.12E-01
2.8136	1.07827	1.22E-01
2.8197	1.07534	1.34E-01
2.8258	1.07329	1.46E-01
2.832	1.07215	1.59E-01
2.8382	1.0711	1.73E-01
2.8444	1.07231	1.86E-01
2.8507	1.07355	2.01E-01
2.857	1.07664	2.15E-01
2.8633	1.08073	2.30E-01
2.8696	1.08581	2.44E-01
2.876	1.09301	2.59E-01
2.8824	1.10031	2.73E-01
2.8888	1.10974	2.86E-01
2.8952	1.12	2.99E-01
2.9017	1.13135	3.11E-01
2.9082	1.14362	3.22E-01
2.9148	1.15675	3.32E-01
2.9213	1.17054	3.41E-01
2.9279	1.18489	3.49E-01
2.9346	1.19965	3.56E-01
2.9412	1.21451	3.62E-01
2.9479	1.23103	3.67E-01
2.9546	1.24689	3.71E-01
2.9614	1.26326	3.73E-01
2.9682	1.27977	3.74E-01
2.975	1.29476	3.74E-01
2.9818	1.31053	3.72E-01
2.9887	1.32596	3.70E-01
2.9956	1.34002	3.66E-01
3.0025	1.35366	3.62E-01
3.0095	1.36628	3.57E-01
3.0165	1.37842	3.51E-01
3.0236	1.38875	3.46E-01
3.0306	1.40033	3.40E-01
3.0377	1.40941	3.34E-01
3.0448	1.4197	3.28E-01
3.052	1.42842	3.21E-01
3.0592	1.43731	3.14E-01
3.0665	1.44509	3.08E-01
3.0737	1.45324	3.02E-01
3.081	1.4607	2.95E-01
3.0884	1.46857	2.89E-01
3.0957	1.47676	2.82E-01
3.1032	1.48475	2.75E-01
3.1106	1.49228	2.67E-01
3.1181	1.50004	2.58E-01
3.1256	1.50677	2.49E-01
3.1332	1.51334	2.40E-01
3.1407	1.5189	2.29E-01
3.1484	1.52367	2.19E-01
3.156	1.52755	2.09E-01
3.1638	1.53113	1.98E-01
3.1715	1.53373	1.87E-01
3.1793	1.53526	1.76E-01
3.1871	1.53632	1.66E-01
3.1949	1.53614	1.56E-01
3.2028	1.53615	1.47E-01
3.2108	1.53577	1.37E-01
3.2187	1.53507	1.28E-01
3.2267	1.53341	1.19E-01
3.2348	1.53149	1.10E-01
3.2429	1.52902	1.02E-01
3.251	1.52621	9.35E-02
3.2592	1.52275	8.58E-02
3.2674	1.5192	7.86E-02
3.2757	1.51509	7.19E-02
3.284	1.51083	6.58E-02
3.2923	1.50645	6.03E-02
3.3007	1.50208	5.53E-02
3.3091	1.49783	5.08E-02
3.3176	1.49356	4.66E-02
3.3261	1.48948	4.28E-02
3.3347	1.48537	3.92E-02
3.3432	1.48138	3.59E-02
3.3519	1.47735	3.29E-02
3.3606	1.47354	3.02E-02
3.3693	1.46969	2.77E-02
3.3781	1.46603	2.54E-02
3.3869	1.4625	2.33E-02
3.3958	1.45902	2.14E-02
3.4047	1.45567	1.96E-02
3.4137	1.45243	1.80E-02
3.4227	1.44924	1.64E-02
3.4318	1.44613	1.50E-02
3.4409	1.44307	1.37E-02
3.45	1.44013	1.26E-02
3.4592	1.43727	1.16E-02
3.4685	1.43454	1.06E-02
3.4778	1.43186	9.73E-03
3.4871	1.42931	8.93E-03
3.4966	1.42679	8.18E-03
3.506	1.42434	7.50E-03
3.5155	1.42198	6.89E-03
3.5251	1.41966	6.34E-03
3.5347	1.41742	5.86E-03
3.5443	1.41526	5.42E-03
3.5541	1.41316	5.02E-03
3.5638	1.41112	4.66E-03
3.5737	1.40913	4.34E-03
3.5835	1.40721	4.06E-03
3.5935	1.40533	3.81E-03
3.6035	1.40351	3.61E-03
3.6135	1.40174	3.44E-03
3.6236	1.40005	3.30E-03
3.6338	1.39841	3.17E-03
3.644	1.39682	3.06E-03
3.6543	1.39528	2.95E-03
3.6646	1.39378	2.85E-03
3.675	1.39232	2.76E-03
3.6854	1.39088	2.67E-03
3.6959	1.38947	2.61E-03
3.7065	1.38811	2.55E-03
3.7171	1.38676	2.50E-03
3.7278	1.38545	2.46E-03
3.7386	1.38414	2.43E-03
3.7494	1.38288	2.42E-03
3.7602	1.38162	2.41E-03
3.7712	1.38039	2.43E-03
3.7822	1.37919	2.45E-03
3.7933	1.37801	2.49E-03
3.8044	1.37685	2.53E-03
3.8156	1.37571	2.58E-03
3.8268	1.37459	2.65E-03
3.8382	1.37348	2.72E-03
3.8496	1.37238	2.81E-03
3.861	1.37131	2.92E-03
3.8726	1.37025	3.05E-03
3.8842	1.36922	3.19E-03
3.8958	1.36821	3.35E-03
3.9076	1.36722	3.52E-03
3.9194	1.36626	3.70E-03
3.9313	1.36531	3.89E-03
3.9433	1.36439	4.10E-03
3.9553	1.36351	4.31E-03
3.9674	1.36263	4.53E-03
3.9796	1.3618	4.76E-03
3.9918	1.36098	4.98E-03
4.0042	1.36018	5.21E-03
4.0166	1.35942	5.44E-03
4.029	1.35866	5.66E-03
4.0416	1.35792	5.89E-03
4.0543	1.35721	6.11E-03
4.067	1.3565	6.33E-03
4.0798	1.35583	6.54E-03
4.0926	1.35515	6.75E-03
4.1056	1.3545	6.94E-03
4.1186	1.35384	7.12E-03
4.1318	1.35318	7.30E-03
4.145	1.35252	7.47E-03
4.1583	1.35186	7.64E-03
4.1717	1.35116	7.83E-03
4.1851	1.3505	8.02E-03
4.1987	1.3498	8.24E-03
4.2123	1.34913	8.47E-03
4.2261	1.34845	8.73E-03
4.2399	1.34779	9.00E-03
4.2538	1.34714	9.29E-03
4.2678	1.34652	9.60E-03
4.2819	1.3459	9.92E-03
4.2961	1.34531	1.03E-02
4.3104	1.34472	1.06E-02
4.3247	1.34417	1.10E-02
4.3392	1.3436	1.13E-02
4.3538	1.34309	1.17E-02
4.3685	1.34258	1.22E-02
4.3833	1.34214	1.26E-02
4.3981	1.34171	1.30E-02
4.4131	1.34134	1.34E-02
4.4282	1.34096	1.38E-02
4.4433	1.34059	1.42E-02
4.4586	1.34025	1.47E-02
4.474	1.33996	1.51E-02
4.4895	1.33968	1.56E-02
4.5051	1.33951	1.61E-02
4.5208	1.33937	1.65E-02
4.5366	1.33932	1.70E-02
4.5526	1.33933	1.74E-02
4.5686	1.33939	1.77E-02
4.5848	1.33954	1.80E-02
4.601	1.33973	1.83E-02
4.6174	1.33996	1.84E-02
4.6339	1.34022	1.84E-02
4.6506	1.34044	1.83E-02
4.6673	1.34067	1.81E-02
4.6842	1.34083	1.78E-02
4.7012	1.34093	1.74E-02
4.7183	1.34096	1.69E-02
4.7355	1.34091	1.64E-02
4.7529	1.34077	1.59E-02
4.7704	1.34054	1.53E-02
4.788	1.34021	1.47E-02
4.8057	1.33985	1.42E-02
4.8236	1.33938	1.36E-02
4.8416	1.33889	1.30E-02
4.8598	1.33828	1.25E-02
4.8781	1.33766	1.19E-02
4.8965	1.33692	1.14E-02
4.9151	1.33616	1.09E-02
4.9338	1.33531	1.04E-02
4.9526	1.33445	1.00E-02
4.9716	1.33353	9.64E-03
4.9907	1.3326	9.30E-03
5.01	1.33161	8.99E-03
5.0295	1.33061	8.72E-03
5.0491	1.32958	8.48E-03
5.0688	1.32853	8.26E-03
5.0887	1.32743	8.08E-03
5.1087	1.32632	7.91E-03
5.129	1.32514	7.78E-03
5.1493	1.32396	7.70E-03
5.1699	1.32272	7.67E-03
5.1906	1.3215	7.68E-03
5.2114	1.32023	7.74E-03
5.2325	1.31901	7.81E-03
5.2537	1.31772	7.90E-03
5.2751	1.31643	8.00E-03
5.2966	1.31508	8.13E-03
5.3183	1.31372	8.29E-03
5.3403	1.3123	8.47E-03
5.3623	1.31086	8.67E-03
5.3846	1.30936	8.89E-03
5.4071	1.30782	9.11E-03
5.4297	1.30615	9.34E-03
5.4525	1.30442	9.60E-03
5.4756	1.3025	9.92E-03
5.4988	1.3005	1.03E-02
5.5222	1.29829	1.08E-02
5.5459	1.296	1.14E-02
5.5697	1.2935	1.22E-02
5.5937	1.29086	1.31E-02
5.618	1.28793	1.42E-02
5.6424	1.28476	1.56E-02
5.6671	1.28127	1.75E-02
5.692	1.27763	2.00E-02
5.7171	1.27387	2.32E-02
5.7424	1.27029	2.72E-02
5.7679	1.26689	3.20E-02
5.7937	1.26389	3.77E-02
5.8197	1.26145	4.43E-02
5.846	1.26005	5.20E-02
5.8725	1.25996	6.04E-02
5.8992	1.26171	6.92E-02
5.9262	1.26523	7.79E-02
5.9534	1.27067	8.59E-02
5.9808	1.27769	9.29E-02
6.0086	1.28621	9.83E-02
6.0365	1.29571	1.02E-01
6.0648	1.30579	1.03E-01
6.0933	1.31563	1.02E-01
6.122	1.32475	9.91E-02
6.1511	1.33238	9.43E-02
6.1804	1.33836	8.83E-02
6.21	1.34256	8.16E-02
6.2399	1.34495	7.48E-02
6.2701	1.34569	6.84E-02
6.3006	1.34519	6.27E-02
6.3313	1.34376	5.79E-02
6.3624	1.34189	5.41E-02
6.3938	1.33971	5.10E-02
6.4255	1.33744	4.85E-02
6.4575	1.33505	4.68E-02
6.4898	1.33286	4.56E-02
6.5225	1.33082	4.50E-02
6.5555	1.32919	4.46E-02
6.5888	1.32779	4.45E-02
6.6225	1.32679	4.44E-02
6.6565	1.32596	4.43E-02
6.6908	1.32532	4.41E-02
6.7255	1.32467	4.38E-02
6.7606	1.32408	4.34E-02
6.796	1.32341	4.30E-02
6.8318	1.3228	4.25E-02
6.8681	1.32203	4.20E-02
6.9046	1.3213	4.15E-02
6.9416	1.3204	4.10E-02
6.979	1.31952	4.06E-02
7.0167	1.3185	4.02E-02
7.0549	1.31758	4.00E-02
7.0935	1.31661	3.98E-02
7.1326	1.31576	3.95E-02
7.172	1.31482	3.93E-02
7.2119	1.31396	3.91E-02
7.2523	1.31294	3.88E-02
7.2931	1.31196	3.86E-02
7.3343	1.31084	3.84E-02
7.3761	1.30981	3.83E-02
7.4183	1.30867	3.83E-02
7.461	1.30768	3.83E-02
7.5042	1.30661	3.83E-02
7.5479	1.30568	3.82E-02
7.5921	1.30467	3.82E-02
7.6368	1.30377	3.81E-02
7.682	1.3027	3.79E-02
7.7278	1.30173	3.77E-02
7.7742	1.30053	3.75E-02
7.8211	1.29939	3.73E-02
7.8685	1.29802	3.70E-02
7.9166	1.29671	3.68E-02
7.9653	1.29519	3.67E-02
8.0145	1.2938	3.65E-02
8.0644	1.29219	3.64E-02
8.1148	1.29072	3.64E-02
8.1659	1.28905	3.63E-02
8.2177	1.28753	3.62E-02
8.2701	1.28576	3.62E-02
8.3232	1.28411	3.61E-02
8.377	1.28222	3.60E-02
8.4315	1.2804	3.59E-02
8.4867	1.27833	3.58E-02
8.5426	1.27633	3.57E-02
8.5993	1.27403	3.56E-02
8.6567	1.27184	3.56E-02
8.7149	1.26928	3.55E-02
8.7739	1.26684	3.55E-02
8.8337	1.264	3.56E-02
8.8943	1.26128	3.57E-02
8.9557	1.25818	3.60E-02
9.018	1.25522	3.63E-02
9.0812	1.25187	3.67E-02
