#DISTRIBUTEDBY=Aerosol Refractive Index Archive (http://eodg.atm.ox.ac.uk/ARIA/)
#DESCRIPTION=Refractive indices of supercooled water
#SUBSTANCE=Supercooled water
#TEMPERATURE=269K 
#DOI=10.1021/jp051942z
#REFERENCE=Wagner,R., S. Benz, O. Muhler, H. Saathoff, M. Schnaiter, and U. Schurath, Mid-Infrared Extinction Spectra and Optical 
## Constants of Supercooled Water Droplets, J. Phys. Chem., volume 109, pgs. 7099-7112, 2005.
#COMMENT=Data from HITRAN
#FORMAT=WAVL N K 
2.2207	1.29003	3.50E-04
2.2245	1.28973	3.50E-04
2.2284	1.2894	3.70E-04
2.2322	1.28909	3.80E-04
2.236	1.28876	4.10E-04
2.2399	1.28844	4.30E-04
2.2438	1.2881	4.60E-04
2.2477	1.28778	5.10E-04
2.2516	1.28745	5.50E-04
2.2555	1.28713	5.90E-04
2.2594	1.28679	6.30E-04
2.2634	1.28648	6.70E-04
2.2673	1.28615	7.10E-04
2.2713	1.28583	7.50E-04
2.2753	1.28549	7.80E-04
2.2793	1.28516	8.10E-04
2.2833	1.28482	8.40E-04
2.2873	1.28447	8.70E-04
2.2914	1.28411	9.00E-04
2.2954	1.28376	9.40E-04
2.2995	1.28339	9.70E-04
2.3036	1.28303	1.01E-03
2.3077	1.28266	1.05E-03
2.3118	1.28229	1.08E-03
2.3159	1.28191	1.13E-03
2.3201	1.28156	1.16E-03
2.3242	1.28117	1.18E-03
2.3284	1.2808	1.21E-03
2.3326	1.2804	1.22E-03
2.3368	1.28001	1.24E-03
2.341	1.27961	1.24E-03
2.3453	1.27918	1.24E-03
2.3495	1.27874	1.25E-03
2.3538	1.2783	1.26E-03
2.3581	1.27783	1.27E-03
2.3624	1.27737	1.29E-03
2.3667	1.27689	1.30E-03
2.371	1.27641	1.33E-03
2.3753	1.27591	1.36E-03
2.3797	1.27543	1.39E-03
2.3841	1.27493	1.40E-03
2.3885	1.2744	1.42E-03
2.3929	1.27387	1.45E-03
2.3973	1.27334	1.48E-03
2.4017	1.2728	1.51E-03
2.4062	1.27225	1.54E-03
2.4107	1.2717	1.56E-03
2.4152	1.27112	1.57E-03
2.4197	1.27052	1.59E-03
2.4242	1.26991	1.62E-03
2.4288	1.26929	1.65E-03
2.4333	1.26866	1.68E-03
2.4379	1.26801	1.71E-03
2.4425	1.26736	1.75E-03
2.4471	1.26668	1.78E-03
2.4517	1.26599	1.82E-03
2.4564	1.26529	1.86E-03
2.461	1.26456	1.91E-03
2.4657	1.26383	1.97E-03
2.4704	1.26309	2.03E-03
2.4751	1.26235	2.10E-03
2.4799	1.26159	2.16E-03
2.4846	1.26083	2.23E-03
2.4894	1.26008	2.27E-03
2.4942	1.25929	2.30E-03
2.499	1.2585	2.32E-03
2.5038	1.25767	2.31E-03
2.5087	1.25682	2.29E-03
2.5135	1.25591	2.26E-03
2.5184	1.25499	2.22E-03
2.5233	1.25402	2.17E-03
2.5282	1.25302	2.11E-03
2.5332	1.25195	2.05E-03
2.5381	1.25085	1.99E-03
2.5431	1.24968	1.93E-03
2.5481	1.24848	1.88E-03
2.5531	1.24722	1.83E-03
2.5582	1.24591	1.78E-03
2.5632	1.24453	1.75E-03
2.5683	1.24311	1.74E-03
2.5734	1.24163	1.74E-03
2.5785	1.24012	1.75E-03
2.5836	1.23853	1.75E-03
2.5888	1.23689	1.75E-03
2.594	1.23514	1.75E-03
2.5992	1.23329	1.78E-03
2.6044	1.23133	1.87E-03
2.6097	1.22933	2.03E-03
2.6149	1.22726	2.25E-03
2.6202	1.2252	2.48E-03
2.6255	1.22305	2.71E-03
2.6308	1.22086	2.92E-03
2.6362	1.21854	3.10E-03
2.6416	1.21612	3.26E-03
2.647	1.21352	3.40E-03
2.6524	1.21074	3.54E-03
2.6578	1.20774	3.68E-03
2.6633	1.20449	3.85E-03
2.6688	1.20095	4.08E-03
2.6743	1.19706	4.41E-03
2.6798	1.19282	4.90E-03
2.6853	1.18814	5.66E-03
2.6909	1.18309	6.78E-03
2.6965	1.17766	8.38E-03
2.7021	1.17193	1.06E-02
2.7078	1.16606	1.34E-02
2.7134	1.1601	1.71E-02
2.7191	1.15431	2.14E-02
2.7248	1.14872	2.64E-02
2.7306	1.14355	3.20E-02
2.7364	1.13892	3.81E-02
2.7421	1.13471	4.45E-02
2.748	1.13109	5.10E-02
2.7538	1.12765	5.75E-02
2.7596	1.12448	6.40E-02
2.7655	1.12112	7.07E-02
2.7715	1.11786	7.75E-02
2.7774	1.11436	8.49E-02
2.7833	1.11115	9.28E-02
2.7893	1.1079	1.01E-01
2.7953	1.10543	1.11E-01
2.8014	1.10281	1.20E-01
2.8075	1.10167	1.31E-01
2.8136	1.10053	1.42E-01
2.8197	1.10052	1.53E-01
2.8258	1.10151	1.64E-01
2.832	1.10339	1.76E-01
2.8382	1.10519	1.87E-01
2.8444	1.10909	1.99E-01
2.8507	1.1127	2.11E-01
2.857	1.11779	2.22E-01
2.8633	1.12344	2.33E-01
2.8696	1.12956	2.44E-01
2.876	1.13731	2.55E-01
2.8824	1.14473	2.66E-01
2.8888	1.15391	2.76E-01
2.8952	1.16366	2.86E-01
2.9017	1.17427	2.95E-01
2.9082	1.18556	3.03E-01
2.9148	1.19759	3.11E-01
2.9213	1.21025	3.18E-01
2.9279	1.22357	3.24E-01
2.9346	1.23741	3.29E-01
2.9412	1.25137	3.32E-01
2.9479	1.26657	3.35E-01
2.9546	1.28073	3.36E-01
2.9614	1.29489	3.35E-01
2.9682	1.30891	3.34E-01
2.975	1.32127	3.31E-01
2.9818	1.33393	3.28E-01
2.9887	1.34579	3.24E-01
2.9956	1.35609	3.20E-01
3.0025	1.36598	3.15E-01
3.0095	1.37522	3.10E-01
3.0165	1.38429	3.06E-01
3.0236	1.39199	3.01E-01
3.0306	1.40088	2.96E-01
3.0377	1.40775	2.92E-01
3.0448	1.41593	2.87E-01
3.052	1.42314	2.82E-01
3.0592	1.43084	2.77E-01
3.0665	1.43787	2.72E-01
3.0737	1.44533	2.66E-01
3.081	1.45219	2.61E-01
3.0884	1.45919	2.55E-01
3.0957	1.46625	2.48E-01
3.1032	1.47283	2.41E-01
3.1106	1.47888	2.34E-01
3.1181	1.48505	2.27E-01
3.1256	1.49039	2.19E-01
3.1332	1.49566	2.10E-01
3.1407	1.50016	2.02E-01
3.1484	1.50402	1.93E-01
3.156	1.50711	1.84E-01
3.1638	1.50988	1.75E-01
3.1715	1.51186	1.66E-01
3.1793	1.51309	1.57E-01
3.1871	1.5142	1.48E-01
3.1949	1.51419	1.39E-01
3.2028	1.5141	1.31E-01
3.2108	1.51331	1.23E-01
3.2187	1.51217	1.15E-01
3.2267	1.51028	1.07E-01
3.2348	1.50838	9.99E-02
3.2429	1.50612	9.31E-02
3.251	1.50374	8.67E-02
3.2592	1.50094	8.06E-02
3.2674	1.49829	7.48E-02
3.2757	1.49522	6.93E-02
3.284	1.49209	6.41E-02
3.2923	1.48881	5.92E-02
3.3007	1.48547	5.48E-02
3.3091	1.4821	5.06E-02
3.3176	1.47863	4.67E-02
3.3261	1.4752	4.31E-02
3.3347	1.47173	3.99E-02
3.3432	1.46836	3.69E-02
3.3519	1.46497	3.41E-02
3.3606	1.46177	3.15E-02
3.3693	1.45849	2.92E-02
3.3781	1.45535	2.70E-02
3.3869	1.45235	2.51E-02
3.3958	1.44933	2.33E-02
3.4047	1.44649	2.16E-02
3.4137	1.44374	2.00E-02
3.4227	1.44108	1.86E-02
3.4318	1.43848	1.71E-02
3.4409	1.43593	1.58E-02
3.45	1.4334	1.45E-02
3.4592	1.43089	1.33E-02
3.4685	1.42844	1.23E-02
3.4778	1.426	1.13E-02
3.4871	1.42362	1.04E-02
3.4966	1.42131	9.60E-03
3.506	1.41906	8.90E-03
3.5155	1.41691	8.26E-03
3.5251	1.41479	7.68E-03
3.5347	1.41275	7.16E-03
3.5443	1.41075	6.70E-03
3.5541	1.40884	6.28E-03
3.5638	1.40697	5.89E-03
3.5737	1.40516	5.55E-03
3.5835	1.40339	5.26E-03
3.5935	1.4017	5.00E-03
3.6035	1.40005	4.77E-03
3.6135	1.39847	4.55E-03
3.6236	1.39692	4.35E-03
3.6338	1.39543	4.17E-03
3.644	1.39396	4.01E-03
3.6543	1.39255	3.86E-03
3.6646	1.39116	3.72E-03
3.675	1.38982	3.59E-03
3.6854	1.38847	3.47E-03
3.6959	1.38719	3.37E-03
3.7065	1.38591	3.28E-03
3.7171	1.38467	3.20E-03
3.7278	1.38344	3.14E-03
3.7386	1.38225	3.08E-03
3.7494	1.38106	3.04E-03
3.7602	1.37991	3.01E-03
3.7712	1.37876	2.99E-03
3.7822	1.37765	2.99E-03
3.7933	1.37653	3.00E-03
3.8044	1.37547	3.03E-03
3.8156	1.37439	3.07E-03
3.8268	1.37336	3.12E-03
3.8382	1.37233	3.19E-03
3.8496	1.37133	3.28E-03
3.861	1.37035	3.38E-03
3.8726	1.36941	3.49E-03
3.8842	1.36847	3.61E-03
3.8958	1.36758	3.73E-03
3.9076	1.36667	3.87E-03
3.9194	1.36583	4.00E-03
3.9313	1.36497	4.15E-03
3.9433	1.36417	4.30E-03
3.9553	1.36335	4.44E-03
3.9674	1.36259	4.59E-03
3.9796	1.3618	4.73E-03
3.9918	1.36106	4.88E-03
4.0042	1.36031	5.02E-03
4.0166	1.3596	5.16E-03
4.029	1.35886	5.30E-03
4.0416	1.35816	5.44E-03
4.0543	1.35743	5.58E-03
4.067	1.35674	5.72E-03
4.0798	1.35602	5.86E-03
4.0926	1.35533	6.02E-03
4.1056	1.3546	6.19E-03
4.1186	1.35392	6.38E-03
4.1318	1.35322	6.59E-03
4.145	1.35257	6.81E-03
4.1583	1.35191	7.03E-03
4.1717	1.35129	7.26E-03
4.1851	1.35066	7.49E-03
4.1987	1.35006	7.74E-03
4.2123	1.34947	7.98E-03
4.2261	1.34891	8.22E-03
4.2399	1.34833	8.45E-03
4.2538	1.34779	8.67E-03
4.2678	1.34721	8.90E-03
4.2819	1.34665	9.14E-03
4.2961	1.34606	9.40E-03
4.3104	1.34552	9.68E-03
4.3247	1.34495	9.97E-03
4.3392	1.34442	1.03E-02
4.3538	1.34389	1.06E-02
4.3685	1.34339	1.10E-02
4.3833	1.34291	1.13E-02
4.3981	1.34248	1.17E-02
4.4131	1.34204	1.21E-02
4.4282	1.34167	1.25E-02
4.4433	1.34127	1.29E-02
4.4586	1.34097	1.33E-02
4.474	1.34065	1.37E-02
4.4895	1.34041	1.41E-02
4.5051	1.34019	1.45E-02
4.5208	1.34006	1.49E-02
4.5366	1.33993	1.53E-02
4.5526	1.33988	1.56E-02
4.5686	1.33981	1.59E-02
4.5848	1.33981	1.61E-02
4.601	1.33978	1.63E-02
4.6174	1.33981	1.65E-02
4.6339	1.33985	1.66E-02
4.6506	1.33991	1.66E-02
4.6673	1.33995	1.66E-02
4.6842	1.34003	1.66E-02
4.7012	1.34005	1.64E-02
4.7183	1.3401	1.62E-02
4.7355	1.34005	1.60E-02
4.7529	1.34002	1.57E-02
4.7704	1.33989	1.53E-02
4.788	1.33973	1.49E-02
4.8057	1.33948	1.45E-02
4.8236	1.33921	1.41E-02
4.8416	1.33884	1.36E-02
4.8598	1.33841	1.31E-02
4.8781	1.33794	1.27E-02
4.8965	1.33741	1.22E-02
4.9151	1.3368	1.18E-02
4.9338	1.33616	1.14E-02
4.9526	1.33543	1.10E-02
4.9716	1.3347	1.06E-02
4.9907	1.33389	1.03E-02
5.01	1.33308	9.95E-03
5.0295	1.33219	9.66E-03
5.0491	1.33131	9.41E-03
5.0688	1.33036	9.18E-03
5.0887	1.32943	8.98E-03
5.1087	1.32841	8.80E-03
5.129	1.3274	8.66E-03
5.1493	1.32633	8.54E-03
5.1699	1.32526	8.46E-03
5.1906	1.32413	8.42E-03
5.2114	1.32301	8.40E-03
5.2325	1.32183	8.42E-03
5.2537	1.32067	8.47E-03
5.2751	1.31945	8.53E-03
5.2966	1.31824	8.61E-03
5.3183	1.31695	8.71E-03
5.3403	1.31566	8.83E-03
5.3623	1.31428	8.96E-03
5.3846	1.31288	9.12E-03
5.4071	1.31138	9.31E-03
5.4297	1.30984	9.51E-03
5.4525	1.30817	9.73E-03
5.4756	1.3064	1.00E-02
5.4988	1.30447	1.04E-02
5.5222	1.30245	1.08E-02
5.5459	1.30026	1.14E-02
5.5697	1.29798	1.21E-02
5.5937	1.2955	1.29E-02
5.618	1.2929	1.40E-02
5.6424	1.29007	1.52E-02
5.6671	1.28705	1.67E-02
5.692	1.2838	1.86E-02
5.7171	1.28032	2.09E-02
5.7424	1.27652	2.38E-02
5.7679	1.27248	2.75E-02
5.7937	1.26828	3.23E-02
5.8197	1.26449	3.87E-02
5.846	1.2616	4.65E-02
5.8725	1.26022	5.55E-02
5.8992	1.2608	6.53E-02
5.9262	1.26351	7.52E-02
5.9534	1.26834	8.48E-02
5.9808	1.27525	9.36E-02
6.0086	1.28418	1.01E-01
6.0365	1.29494	1.06E-01
6.0648	1.30687	1.09E-01
6.0933	1.31907	1.09E-01
6.122	1.33048	1.05E-01
6.1511	1.34015	9.92E-02
6.1804	1.3474	9.15E-02
6.21	1.35219	8.30E-02
6.2399	1.35432	7.45E-02
6.2701	1.35437	6.67E-02
6.3006	1.3527	6.01E-02
6.3313	1.35014	5.51E-02
6.3624	1.3472	5.16E-02
6.3938	1.34455	4.93E-02
6.4255	1.34228	4.77E-02
6.4575	1.34046	4.65E-02
6.4898	1.33889	4.55E-02
6.5225	1.33748	4.46E-02
6.5555	1.33613	4.38E-02
6.5888	1.33493	4.32E-02
6.6225	1.33378	4.26E-02
6.6565	1.3328	4.21E-02
6.6908	1.33175	4.17E-02
6.7255	1.33083	4.13E-02
6.7606	1.32989	4.10E-02
6.796	1.32912	4.07E-02
6.8318	1.32828	4.04E-02
6.8681	1.3275	4.01E-02
6.9046	1.32667	3.98E-02
6.9416	1.32593	3.95E-02
6.979	1.32508	3.92E-02
7.0167	1.32428	3.90E-02
7.0549	1.32343	3.88E-02
7.0935	1.32273	3.87E-02
7.1326	1.32195	3.84E-02
7.172	1.32124	3.81E-02
7.2119	1.32032	3.78E-02
7.2523	1.31934	3.75E-02
7.2931	1.31817	3.73E-02
7.3343	1.31705	3.73E-02
7.3761	1.31593	3.75E-02
7.4183	1.31503	3.77E-02
7.461	1.31422	3.80E-02
7.5042	1.3136	3.81E-02
7.5479	1.31288	3.80E-02
7.5921	1.31221	3.79E-02
7.6368	1.31131	3.77E-02
7.682	1.31038	3.75E-02
7.7278	1.30928	3.74E-02
7.7742	1.30823	3.73E-02
7.8211	1.30707	3.72E-02
7.8685	1.30598	3.72E-02
7.9166	1.30476	3.72E-02
7.9653	1.30363	3.72E-02
8.0145	1.3024	3.73E-02
8.0644	1.30125	3.73E-02
8.1148	1.29997	3.73E-02
8.1659	1.29875	3.73E-02
8.2177	1.29738	3.73E-02
8.2701	1.29603	3.73E-02
8.3232	1.29452	3.73E-02
8.377	1.29306	3.73E-02
8.4315	1.29137	3.73E-02
8.4867	1.28974	3.74E-02
8.5426	1.2879	3.75E-02
8.5993	1.28615	3.76E-02
8.6567	1.28425	3.78E-02
8.7149	1.28242	3.80E-02
8.7739	1.28038	3.82E-02
8.8337	1.27839	3.84E-02
8.8943	1.27616	3.86E-02
8.9557	1.27394	3.88E-02
9.018	1.27144	3.90E-02
9.0812	1.26892	3.93E-02
